* REW测量的测量数据V5.20.13
* 来源: 麦克风 (Realtek High Definition Audio, MICROPHONE (主音), L, volume: no control
* 格式: 1M 对数扫频正弦, 1 扫频 at 0.0 dBFS 没有时间参考
* 日期: 2024-10-6 14:15:22
* REW 设置:
* C计权补偿: 关
*  目标电平: 75.0 dB
* 注释: 
* 测量: Aeroflot Aviation IEM L
* 平滑: 1/24 倍频程
* 频率步进: 1/48 倍频程
* 起始频率: 20.300 Hz
*
* 频率(Hz) SPL(dB) 相位(角度)
20.299999 -49.362 107.8480
20.600000 -49.782 109.5923
20.900000 -50.626 113.1679
21.200001 -51.207 117.2425
21.400000 -51.219 118.9808
21.799999 -50.495 119.0992
22.000000 -49.935 117.6545
22.400000 -48.967 113.9791
22.700001 -48.638 112.3628
23.000000 -48.753 112.0857
23.299999 -49.262 111.7785
23.600000 -50.001 109.8414
24.000000 -50.880 103.3605
24.299999 -51.126 96.8672
24.700001 -50.949 90.5413
25.000000 -50.756 90.6625
25.400000 -50.671 98.2164
25.799999 -50.692 109.5556
26.200001 -50.730 116.2681
26.500000 -50.770 114.3496
26.900000 -50.738 102.6318
27.200001 -50.556 91.0600
27.600000 -50.185 79.5887
28.000000 -49.890 78.7700
28.500000 -49.504 90.7104
29.000000 -48.869 103.5634
29.500000 -48.401 107.4997
30.000000 -48.318 105.8247
30.400000 -48.213 106.6229
30.700001 -47.898 109.8084
31.100000 -47.166 115.4276
31.500000 -46.355 119.1588
32.000000 -45.647 118.3160
32.500000 -45.395 113.6875
33.000000 -45.494 109.8727
33.500000 -45.865 108.3011
34.000000 -46.505 107.3175
34.500000 -47.400 106.2501
35.000000 -48.400 107.0763
35.500000 -49.058 110.4718
36.000000 -48.812 112.5404
36.500000 -47.656 109.6078
37.000000 -46.280 103.8324
37.500000 -45.330 100.4514
38.200001 -45.104 102.9862
38.700001 -45.422 106.2462
39.500000 -45.351 106.4389
40.000000 -44.802 105.3185
40.599998 -44.232 105.8146
41.200001 -44.015 106.6050
41.799999 -43.906 104.8878
42.500000 -43.726 102.0849
43.099998 -43.780 104.0233
43.700001 -44.066 110.0860
44.400002 -44.189 115.9917
45.000000 -43.815 115.7921
45.500000 -43.362 112.8517
46.200001 -42.928 108.4059
46.799999 -42.866 106.7876
47.500000 -43.032 108.4447
48.200001 -43.283 111.9507
48.700001 -43.399 113.0759
49.400002 -43.270 111.0329
50.000000 -42.947 108.5596
50.799999 -42.729 109.3757
51.500000 -42.850 112.8666
52.200001 -42.796 115.3893
53.000000 -42.267 116.7621
53.799999 -41.823 117.2076
54.500000 -41.776 116.1883
55.200001 -41.804 115.5836
56.000000 -41.566 117.6845
57.000000 -41.191 119.3287
58.000000 -41.473 115.1129
59.000000 -41.941 111.8801
60.000000 -41.530 112.6511
60.799999 -40.950 112.5502
61.500000 -40.694 111.4624
62.200001 -40.605 110.7136
63.000000 -40.437 110.5187
64.000000 -40.233 110.6106
65.000000 -40.181 112.8114
66.000000 -39.933 116.8888
67.000000 -39.715 118.9945
68.000000 -39.696 117.6091
69.000000 -39.738 115.0900
70.000000 -39.733 114.1991
71.000000 -39.423 114.8306
72.000000 -39.049 115.7859
73.000000 -38.908 117.6717
74.000000 -38.888 119.0428
75.000000 -38.886 118.6670
76.199997 -38.611 119.2743
77.500000 -38.294 120.4721
78.800003 -38.335 121.5200
80.000000 -38.043 121.2795
81.199997 -37.736 119.4718
82.500000 -37.619 118.3117
83.800003 -37.581 118.6203
85.000000 -37.417 119.7379
86.199997 -37.299 121.8165
87.500000 -37.215 122.7174
88.500000 -37.104 121.6289
90.000000 -36.709 120.5350
91.199997 -36.325 120.8500
92.500000 -36.001 121.7044
93.800003 -35.815 122.8460
95.000000 -35.612 124.1176
96.199997 -35.432 125.1280
97.500000 -35.454 124.9504
98.800003 -35.424 124.1481
100.000000 -35.283 123.4569
101.500000 -35.196 123.1066
103.000000 -35.243 123.3651
104.400002 -35.137 124.3921
106.000000 -34.827 125.7301
107.500000 -34.656 126.8636
109.000000 -34.519 127.8894
110.599998 -34.304 128.2143
112.000000 -34.059 127.8553
113.800003 -33.862 127.8391
115.000000 -33.785 128.5842
117.199997 -33.726 130.4244
118.000000 -33.851 130.9161
120.599998 -33.935 131.8452
122.000000 -33.194 131.0719
124.099998 -32.625 129.5605
125.000000 -32.567 129.2984
126.500000 -32.525 129.6234
128.000000 -32.454 130.5196
131.500000 -31.884 131.8816
132.000000 -31.803 131.9218
134.000000 -31.649 132.0191
136.000000 -31.565 132.5213
138.000000 -31.325 132.5269
140.000000 -31.042 131.9478
143.000000 -30.656 132.9116
145.000000 -30.468 133.3147
147.500000 -30.195 133.6924
150.000000 -29.846 134.1826
152.500000 -29.522 133.7001
155.000000 -29.275 132.8333
157.500000 -29.055 131.3058
160.000000 -29.117 128.9546
162.500000 -29.416 127.3114
165.000000 -29.765 127.2520
167.500000 -29.973 128.9259
170.000000 -29.961 131.8486
172.500000 -29.765 134.4166
175.000000 -29.514 136.1424
177.500000 -29.242 137.4633
180.000000 -28.949 138.5841
182.500000 -28.681 139.6614
185.000000 -28.436 140.5986
187.500000 -28.201 141.3191
190.000000 -27.924 142.0339
192.500000 -27.615 142.5923
195.000000 -27.341 142.9576
197.500000 -27.116 143.5683
200.000000 -26.891 144.2835
203.000000 -26.584 145.0479
206.000000 -26.270 145.6132
209.000000 -25.967 145.8098
212.000000 -25.715 146.0977
214.000000 -25.570 146.3483
218.000000 -25.214 147.0232
220.000000 -25.015 147.3585
224.000000 -24.661 147.5343
227.000000 -24.429 147.6685
230.000000 -24.205 148.0880
233.000000 -23.960 148.6060
236.000000 -23.695 148.9313
240.000000 -23.328 149.3029
243.000000 -23.069 149.6729
247.000000 -22.741 149.9975
250.000000 -22.503 150.1704
254.000000 -22.203 150.6620
258.000000 -21.915 151.0525
262.000000 -21.634 151.1996
265.000000 -21.409 151.3618
269.000000 -21.095 151.8525
272.000000 -20.867 152.1967
276.000000 -20.571 152.4825
280.000000 -20.269 152.7807
285.000000 -19.879 153.1323
290.000000 -19.521 153.4552
295.000000 -19.168 153.8579
300.000000 -18.807 154.2164
304.000000 -18.508 154.4635
307.000000 -18.277 154.6219
311.000000 -17.974 154.8070
315.000000 -17.691 155.0139
320.000000 -17.348 155.2258
325.000000 -16.961 155.4059
330.000000 -16.579 155.4119
335.000000 -16.216 155.4959
340.000000 -15.861 155.6747
345.000000 -15.540 155.8653
350.000000 -15.201 156.0483
355.000000 -14.845 156.2954
360.000000 -14.489 156.4205
365.000000 -14.132 156.4602
370.000000 -13.767 156.4706
375.000000 -13.404 156.4351
382.000000 -12.901 156.3416
387.000000 -12.534 156.2787
395.000000 -11.944 156.1086
400.000000 -11.580 155.9415
406.000000 -11.147 155.6615
412.000000 -10.713 155.3150
418.000000 -10.272 154.9404
425.000000 -9.753 154.3868
431.000000 -9.313 153.7972
437.000000 -8.873 153.1576
444.000000 -8.356 152.2852
450.000000 -7.913 151.4090
455.000000 -7.542 150.6234
462.000000 -7.025 149.4479
468.000000 -6.593 148.3372
475.000000 -6.098 146.8744
482.000000 -5.606 145.2012
487.000000 -5.257 143.8972
494.000000 -4.776 141.9615
500.000000 -4.373 140.1926
508.000000 -3.854 137.6691
515.000000 -3.419 135.2853
522.000000 -3.005 132.7201
530.000000 -2.554 129.6328
538.000000 -2.131 126.3865
545.000000 -1.786 123.3705
552.000000 -1.463 120.2387
560.000000 -1.123 116.5888
570.000000 -0.746 111.9450
580.000000 -0.417 107.2244
590.000000 -0.140 102.4545
600.000000 0.086 97.6763
608.000000 0.231 93.9074
615.000000 0.330 90.6654
622.000000 0.409 87.5033
630.000000 0.483 83.9864
640.000000 0.553 79.6782
650.000000 0.580 75.4405
660.000000 0.559 71.3370
670.000000 0.497 67.4669
680.000000 0.406 63.8521
690.000000 0.286 60.5142
700.000000 0.144 57.5004
710.000000 -0.011 54.7944
720.000000 -0.174 52.3896
730.000000 -0.344 50.2892
740.000000 -0.514 48.4560
750.000000 -0.678 46.8592
762.000000 -0.862 45.2441
775.000000 -1.038 43.8207
788.000000 -1.193 42.6786
800.000000 -1.313 41.8261
812.000000 -1.414 41.1189
825.000000 -1.497 40.5146
838.000000 -1.556 40.0341
850.000000 -1.592 39.6529
862.000000 -1.609 39.3077
875.000000 -1.610 38.9723
885.000000 -1.599 38.7543
900.000000 -1.571 38.4492
912.000000 -1.545 38.2264
925.000000 -1.519 38.0938
938.000000 -1.492 38.1604
950.000000 -1.465 38.4582
962.000000 -1.435 39.1785
975.000000 -1.369 40.8642
988.000000 -1.086 44.0300
1000.000000 -0.314 47.5035
1015.000000 1.163 48.0234
1030.000000 2.213 42.5131
1044.000000 2.623 36.4492
1060.000000 2.871 31.2326
1075.000000 3.137 27.4040
1090.000000 3.460 23.8303
1106.000000 3.839 19.8128
1120.000000 4.185 15.8876
1138.000000 4.614 10.0902
1150.000000 4.865 5.6930
1172.000000 5.180 -3.4393
1180.000000 5.230 -7.0672
1206.000000 5.078 -19.4956
1220.000000 4.744 -26.0682
1241.000000 3.917 -33.7738
1250.000000 3.538 -35.8608
1265.000000 3.090 -38.4547
1280.000000 2.883 -41.8679
1315.000000 2.003 -53.8437
1320.000000 1.797 -55.4170
1340.000000 0.881 -60.7811
1360.000000 -0.079 -64.8551
1380.000000 -1.027 -67.9095
1400.000000 -1.942 -70.2851
1430.000000 -3.280 -72.8512
1450.000000 -4.125 -74.0799
1475.000000 -5.130 -75.1837
1500.000000 -6.114 -75.8808
1525.000000 -7.066 -76.2837
1550.000000 -7.991 -76.3587
1575.000000 -8.896 -76.0924
1600.000000 -9.779 -75.5922
1625.000000 -10.637 -74.8911
1650.000000 -11.490 -74.0012
1675.000000 -12.331 -72.8184
1700.000000 -13.149 -71.4460
1725.000000 -13.956 -69.9789
1750.000000 -14.771 -68.2974
1775.000000 -15.584 -66.3699
1800.000000 -16.396 -64.2528
1825.000000 -17.209 -61.8274
1850.000000 -18.031 -59.0288
1875.000000 -18.863 -55.9317
1900.000000 -19.703 -52.4544
1925.000000 -20.543 -48.4385
1950.000000 -21.384 -43.8435
1975.000000 -22.219 -38.5030
2000.000000 -23.023 -32.4521
2030.000000 -23.905 -24.1178
2060.000000 -24.634 -14.4747
2090.000000 -25.135 -3.8182
2120.000000 -25.338 7.2046
2140.000000 -25.297 14.4345
2180.000000 -24.855 28.0254
2200.000000 -24.512 34.2140
2240.000000 -23.677 45.2560
2270.000000 -22.941 52.2696
2300.000000 -22.170 58.2048
2330.000000 -21.402 63.2215
2360.000000 -20.659 67.4686
2400.000000 -19.729 72.2615
2430.000000 -19.059 75.3873
2470.000000 -18.199 79.1150
2500.000000 -17.577 81.6303
2540.000000 -16.753 84.6286
2580.000000 -15.952 87.2975
2620.000000 -15.176 89.6696
2650.000000 -14.607 91.2742
2690.000000 -13.860 93.2085
2720.000000 -13.308 94.5257
2760.000000 -12.586 96.1517
2800.000000 -11.858 97.7066
2850.000000 -10.933 99.5067
2900.000000 -9.988 101.0371
2950.000000 -9.017 102.2455
3000.000000 -8.020 103.2543
3040.000000 -7.189 103.8590
3070.000000 -6.543 104.1449
3110.000000 -5.653 104.2917
3150.000000 -4.728 104.1431
3200.000000 -3.508 103.4617
3250.000000 -2.204 102.0378
3300.000000 -0.813 99.5952
3350.000000 0.643 95.7857
3400.000000 2.120 90.1286
3450.000000 3.513 82.0757
3500.000000 4.658 71.3569
3550.000000 5.381 58.4478
3600.000000 5.570 44.7438
3650.000000 5.247 32.0565
3700.000000 4.551 21.6968
3750.000000 3.661 13.9374
3820.000000 2.353 6.7308
3870.000000 1.479 3.5024
3950.000000 0.268 0.4704
4000.000000 -0.369 -0.5286
4060.000000 -1.032 -1.1176
4120.000000 -1.590 -1.2226
4180.000000 -2.049 -1.0002
4250.000000 -2.477 -0.4758
4310.000000 -2.760 0.1517
4370.000000 -2.967 0.8563
4440.000000 -3.121 1.6837
4500.000000 -3.177 2.3546
4550.000000 -3.171 2.8556
4620.000000 -3.082 3.4098
4680.000000 -2.926 3.6468
4750.000000 -2.647 3.4992
4820.000000 -2.256 2.6830
4870.000000 -1.906 1.4886
4940.000000 -1.341 -1.4098
5000.000000 -0.842 -5.4718
5080.000000 -0.330 -13.5834
5150.000000 -0.164 -22.7102
5220.000000 -0.304 -33.4097
5300.000000 -1.051 -46.8956
5380.000000 -2.547 -58.4934
5450.000000 -4.304 -65.2666
5520.000000 -6.273 -68.7111
5600.000000 -8.591 -69.1046
5700.000000 -11.413 -65.1797
5800.000000 -14.025 -56.9143
5900.000000 -16.285 -44.5903
6000.000000 -17.963 -28.9706
6080.000000 -18.718 -15.2442
6150.000000 -18.914 -3.3004
6220.000000 -18.737 7.8430
6300.000000 -18.214 19.0628
6400.000000 -17.295 30.6656
6500.000000 -16.242 39.8959
6600.000000 -15.142 47.2889
6700.000000 -14.016 53.3023
6800.000000 -12.862 58.2734
6900.000000 -11.672 62.3519
7000.000000 -10.434 65.6154
7100.000000 -9.127 68.0877
7200.000000 -7.734 69.6592
7300.000000 -6.248 70.1369
7400.000000 -4.674 69.2090
7500.000000 -3.038 66.4040
7620.000000 -1.126 59.7342
7750.000000 0.550 47.7159
7880.000000 1.430 31.9890
8000.000000 1.435 17.5605
8120.000000 0.869 6.0511
8250.000000 0.004 -2.3085
8380.000000 -0.799 -7.4673
8500.000000 -1.359 -10.7720
8620.000000 -1.743 -13.8029
8750.000000 -2.068 -17.6029
8850.000000 -2.374 -20.9153
9000.000000 -3.077 -25.0640
9120.000000 -3.734 -26.1112
9250.000000 -4.184 -25.0497
9380.000000 -4.139 -23.6374
9500.000000 -3.710 -23.7005
9620.000000 -3.073 -26.1383
9750.000000 -2.383 -32.1580
9880.000000 -1.954 -41.6785
10000.000000 -1.986 -52.6280
10150.000000 -2.724 -66.5882
10300.000000 -4.136 -77.9107
10440.000000 -5.807 -84.9499
10600.000000 -7.828 -89.2825
10750.000000 -9.638 -90.7647
10900.000000 -11.294 -90.5798
11060.000000 -12.883 -89.1689
11200.000000 -14.133 -87.2655
11380.000000 -15.571 -84.2116
11500.000000 -16.443 -81.8694
11720.000000 -17.878 -77.0967
11800.000000 -18.349 -75.2525
12060.000000 -19.724 -68.9655
12200.000000 -20.380 -65.4464
12410.000000 -21.266 -60.0442
12500.000000 -21.610 -57.6725
12650.000000 -22.139 -53.6392
12800.000000 -22.617 -49.5296
13150.000000 -23.569 -39.5756
13200.000000 -23.685 -38.0773
13400.000000 -24.093 -31.8240
13600.000000 -24.397 -25.2511
13800.000000 -24.553 -18.5082
14000.000000 -24.576 -11.9895
14300.000000 -24.589 -1.6199
14500.000000 -24.438 6.3478
14750.000000 -23.815 16.0280
15000.000000 -22.983 23.9941
15250.000000 -22.242 31.8815
15500.000000 -21.402 40.5292
15750.000000 -20.184 49.1097
16000.000000 -18.400 56.7170
16250.000000 -16.071 61.2289
16500.000000 -13.716 57.1255
16750.000000 -12.433 40.1450
17000.000000 -13.144 16.6652
17250.000000 -15.932 0.6854
17500.000000 -20.378 3.5300
17750.000000 -25.576 29.8493
18000.000000 -27.927 61.4536
18250.000000 -26.981 74.9728
18500.000000 -26.607 73.6823
18750.000000 -27.329 70.2672
19000.000000 -28.618 68.9888
19250.000000 -30.010 68.5694
19500.000000 -31.379 67.5425
19750.000000 -33.004 67.0658
20000.000000 -35.095 71.3765
20300.000000 -37.593 83.7871
