* REW测量的测量数据V5.20.13
* 来源: 麦克风 (Realtek High Definition Audio, MICROPHONE (主音), L, volume: no control
* 格式: 1M 对数扫频正弦, 1 扫频 at 0.0 dBFS 没有时间参考
* 日期: 2024-10-6 14:16:25
* REW 设置:
* C计权补偿: 关
*  目标电平: 75.0 dB
* 注释: 
* 测量: Aeroflot Aviation IEM R
* 平滑: 1/24 倍频程
* 频率步进: 1/48 倍频程
* 起始频率: 20.300 Hz
*
* 频率(Hz) SPL(dB) 相位(角度)
20.299999 -48.476 126.1929
20.600000 -48.763 124.8926
20.900000 -49.346 122.0770
21.200001 -49.795 118.2749
21.400000 -49.879 115.7880
21.799999 -49.547 112.2338
22.000000 -49.198 111.5584
22.400000 -48.400 112.1575
22.700001 -47.867 113.0252
23.000000 -47.458 113.0222
23.299999 -47.179 111.8352
23.600000 -47.032 109.8498
24.000000 -47.053 107.1689
24.299999 -47.244 106.0929
24.700001 -47.723 106.2736
25.000000 -48.188 107.0164
25.400000 -48.770 107.4652
25.799999 -49.000 106.4370
26.200001 -48.677 104.7707
26.500000 -48.151 104.0896
26.900000 -47.326 104.4552
27.200001 -46.786 105.1925
27.600000 -46.291 105.5361
28.000000 -46.059 104.1364
28.500000 -45.985 100.7460
29.000000 -45.934 99.0640
29.500000 -45.819 101.7617
30.000000 -45.685 107.5325
30.400000 -45.625 111.6455
30.700001 -45.630 113.3051
31.100000 -45.691 113.3236
31.500000 -45.779 111.6691
32.000000 -45.878 109.4253
32.500000 -45.948 108.5923
33.000000 -45.926 108.5793
33.500000 -45.715 107.4976
34.000000 -45.324 104.3774
34.500000 -44.933 100.5122
35.000000 -44.738 98.2120
35.500000 -44.810 98.6209
36.000000 -45.050 100.1280
36.500000 -45.255 99.9061
37.000000 -45.201 97.4257
37.500000 -44.803 95.8616
38.200001 -43.954 101.0100
38.700001 -43.515 108.3083
39.500000 -43.722 116.1035
40.000000 -44.296 117.0445
40.599998 -44.685 116.6454
41.200001 -44.206 115.7290
41.799999 -43.424 112.6842
42.500000 -42.941 106.1226
43.099998 -42.962 101.2805
43.700001 -43.082 100.5711
44.400002 -43.010 104.7935
45.000000 -42.911 108.6539
45.500000 -43.024 109.2091
46.200001 -43.315 106.5777
46.799999 -43.206 105.3323
47.500000 -42.761 107.5254
48.200001 -42.631 109.6151
48.700001 -42.678 109.1724
49.400002 -42.391 106.9239
50.000000 -41.865 104.9544
50.799999 -41.492 103.1631
51.500000 -41.543 104.2098
52.200001 -41.547 108.2357
53.000000 -41.379 112.2139
53.799999 -41.299 112.4327
54.500000 -41.420 111.5841
55.200001 -41.559 111.9844
56.000000 -41.323 113.8656
57.000000 -40.855 115.1170
58.000000 -41.039 114.6293
59.000000 -40.787 114.7828
60.000000 -39.958 114.6834
60.799999 -39.812 115.0305
61.500000 -39.978 115.8449
62.200001 -39.965 116.3899
63.000000 -39.708 116.5192
64.000000 -39.570 116.0732
65.000000 -39.450 115.4664
66.000000 -39.281 116.3962
67.000000 -39.292 117.3838
68.000000 -39.130 116.8215
69.000000 -38.821 115.7993
70.000000 -38.719 115.4973
71.000000 -38.861 115.3261
72.000000 -38.935 114.5235
73.000000 -38.587 114.2898
74.000000 -38.027 115.5501
75.000000 -37.785 117.4795
76.199997 -37.782 118.8535
77.500000 -37.724 119.0850
78.800003 -37.536 118.4032
80.000000 -37.415 118.0650
81.199997 -37.396 117.9911
82.500000 -37.278 118.6442
83.800003 -37.122 119.7287
85.000000 -36.883 120.3059
86.199997 -36.520 121.2248
87.500000 -36.145 122.0911
88.500000 -36.090 121.8658
90.000000 -35.962 121.6661
91.199997 -35.719 121.9489
92.500000 -35.447 122.0671
93.800003 -35.449 120.7536
95.000000 -35.709 118.7448
96.199997 -35.635 118.6908
97.500000 -35.260 120.8838
98.800003 -35.084 123.1544
100.000000 -34.999 124.5811
101.500000 -34.764 125.3109
103.000000 -34.470 125.1878
104.400002 -34.305 125.1415
106.000000 -34.249 125.5978
107.500000 -34.049 125.8996
109.000000 -33.817 125.9792
110.599998 -33.687 126.0094
112.000000 -33.529 126.5104
113.800003 -33.271 127.1183
115.000000 -33.164 126.7592
117.199997 -33.214 125.9815
118.000000 -33.396 126.1145
120.599998 -33.616 126.1943
122.000000 -32.910 127.0952
124.099998 -32.365 128.5665
125.000000 -32.242 129.0433
126.500000 -32.051 129.5330
128.000000 -31.898 129.8876
131.500000 -31.517 130.1486
132.000000 -31.468 130.1675
134.000000 -31.327 130.4981
136.000000 -31.151 131.1124
138.000000 -30.925 131.6466
140.000000 -30.722 132.0657
143.000000 -30.463 133.6520
145.000000 -30.301 133.6883
147.500000 -30.091 133.7999
150.000000 -29.835 134.2474
152.500000 -29.500 134.9465
155.000000 -29.226 135.2695
157.500000 -29.011 135.5759
160.000000 -28.811 135.9941
162.500000 -28.629 136.4517
165.000000 -28.447 136.7825
167.500000 -28.221 137.1863
170.000000 -28.035 137.5988
172.500000 -27.861 138.1179
175.000000 -27.617 138.6637
177.500000 -27.357 139.0045
180.000000 -27.121 139.2525
182.500000 -26.891 139.4349
185.000000 -26.664 139.7516
187.500000 -26.491 140.1559
190.000000 -26.319 140.5504
192.500000 -26.102 140.7874
195.000000 -25.888 141.0289
197.500000 -25.681 141.4047
200.000000 -25.457 141.7792
203.000000 -25.207 142.0638
206.000000 -24.983 142.3257
209.000000 -24.772 142.6864
212.000000 -24.538 143.1718
214.000000 -24.360 143.3501
218.000000 -24.021 143.6998
220.000000 -23.861 143.9649
224.000000 -23.517 144.4336
227.000000 -23.265 144.8084
230.000000 -23.029 145.1660
233.000000 -22.815 145.4501
236.000000 -22.608 145.6832
240.000000 -22.325 146.0948
243.000000 -22.094 146.4466
247.000000 -21.765 146.6217
250.000000 -21.537 146.7447
254.000000 -21.199 147.0641
258.000000 -20.863 147.3947
262.000000 -20.548 147.6729
265.000000 -20.326 147.7751
269.000000 -20.020 147.8665
272.000000 -19.774 147.8264
276.000000 -19.436 147.5603
280.000000 -19.109 147.0217
285.000000 -18.748 146.0475
290.000000 -18.478 144.6623
295.000000 -18.340 143.4663
300.000000 -18.317 143.0010
304.000000 -18.311 143.1495
307.000000 -18.284 143.5389
311.000000 -18.204 144.3605
315.000000 -18.068 145.3372
320.000000 -17.839 146.7033
325.000000 -17.570 148.0430
330.000000 -17.258 149.1343
335.000000 -16.923 150.1297
340.000000 -16.532 151.0612
345.000000 -16.105 151.9775
350.000000 -15.706 152.5404
355.000000 -15.340 152.8217
360.000000 -14.986 152.9076
365.000000 -14.631 152.8710
370.000000 -14.290 152.8073
375.000000 -13.973 152.7810
382.000000 -13.560 152.8831
387.000000 -13.275 153.0549
395.000000 -12.821 153.5471
400.000000 -12.522 153.9249
406.000000 -12.141 154.4151
412.000000 -11.742 154.8150
418.000000 -11.330 155.1223
425.000000 -10.847 155.3857
431.000000 -10.426 155.5299
437.000000 -10.000 155.6208
444.000000 -9.500 155.6252
450.000000 -9.068 155.5784
455.000000 -8.710 155.5045
462.000000 -8.216 155.2884
468.000000 -7.787 154.9776
475.000000 -7.277 154.5177
482.000000 -6.772 153.9985
487.000000 -6.415 153.5694
494.000000 -5.914 152.8758
500.000000 -5.482 152.1926
508.000000 -4.907 151.1732
515.000000 -4.407 150.1358
522.000000 -3.906 148.9244
530.000000 -3.339 147.3986
538.000000 -2.782 145.7218
545.000000 -2.304 144.0888
552.000000 -1.837 142.2927
560.000000 -1.311 140.0522
570.000000 -0.669 137.0195
580.000000 -0.056 133.7482
590.000000 0.521 130.2045
600.000000 1.065 126.4126
608.000000 1.475 123.2521
615.000000 1.815 120.3879
622.000000 2.134 117.4459
630.000000 2.472 114.0400
640.000000 2.869 109.7398
650.000000 3.236 105.3334
660.000000 3.562 100.8144
670.000000 3.846 96.2423
680.000000 4.092 91.6653
690.000000 4.297 87.1232
700.000000 4.458 82.6575
710.000000 4.584 78.3047
720.000000 4.677 74.1034
730.000000 4.739 70.1035
740.000000 4.776 66.3245
750.000000 4.795 62.7345
762.000000 4.802 58.6978
775.000000 4.800 54.6603
788.000000 4.790 50.9684
800.000000 4.788 47.8734
812.000000 4.793 44.9958
825.000000 4.815 42.1226
838.000000 4.862 39.4659
850.000000 4.930 37.1403
862.000000 5.026 34.8528
875.000000 5.161 32.3661
885.000000 5.286 30.4421
900.000000 5.511 27.4288
912.000000 5.717 24.8101
925.000000 5.963 21.7331
938.000000 6.225 18.3381
950.000000 6.471 14.8761
962.000000 6.716 11.0835
975.000000 6.965 6.5246
988.000000 7.173 1.4503
1000.000000 7.315 -3.6895
1015.000000 7.407 -10.6341
1030.000000 7.371 -17.9524
1044.000000 7.198 -24.9160
1060.000000 6.835 -32.7824
1075.000000 6.342 -39.8256
1090.000000 5.718 -46.2292
1106.000000 4.959 -52.1767
1120.000000 4.252 -56.6794
1138.000000 3.323 -61.6106
1150.000000 2.698 -64.4368
1172.000000 1.552 -68.7599
1180.000000 1.140 -70.0789
1206.000000 -0.161 -73.6095
1220.000000 -0.841 -75.1209
1241.000000 -1.842 -76.9003
1250.000000 -2.260 -77.4628
1265.000000 -2.923 -78.1345
1280.000000 -3.531 -78.6508
1315.000000 -4.869 -79.9520
1320.000000 -5.060 -80.1012
1340.000000 -5.814 -80.5306
1360.000000 -6.558 -80.7372
1380.000000 -7.282 -80.7566
1400.000000 -7.987 -80.6616
1430.000000 -9.027 -80.3446
1450.000000 -9.707 -79.9414
1475.000000 -10.546 -79.2592
1500.000000 -11.382 -78.4188
1525.000000 -12.195 -77.3771
1550.000000 -13.005 -76.1436
1575.000000 -13.818 -74.7044
1600.000000 -14.624 -73.1177
1625.000000 -15.427 -71.3983
1650.000000 -16.241 -69.4542
1675.000000 -17.074 -67.2320
1700.000000 -17.911 -64.7473
1725.000000 -18.754 -61.8943
1750.000000 -19.601 -58.6970
1775.000000 -20.450 -55.0939
1800.000000 -21.297 -50.9233
1825.000000 -22.148 -46.2537
1850.000000 -22.998 -40.9668
1875.000000 -23.821 -34.7112
1900.000000 -24.564 -27.5783
1925.000000 -25.200 -19.7619
1950.000000 -25.705 -11.3020
1975.000000 -26.022 -2.4047
2000.000000 -26.156 6.6841
2030.000000 -26.068 17.4810
2060.000000 -25.759 27.5825
2090.000000 -25.270 36.6867
2120.000000 -24.621 45.0570
2140.000000 -24.119 50.1152
2180.000000 -23.062 58.3709
2200.000000 -22.546 61.7021
2240.000000 -21.563 67.4139
2270.000000 -20.866 71.1587
2300.000000 -20.193 74.4723
2330.000000 -19.554 77.3970
2360.000000 -18.945 80.0201
2400.000000 -18.152 83.2200
2430.000000 -17.568 85.4724
2470.000000 -16.807 88.2079
2500.000000 -16.249 90.0727
2540.000000 -15.521 92.3789
2580.000000 -14.802 94.4800
2620.000000 -14.094 96.4595
2650.000000 -13.561 97.8520
2690.000000 -12.850 99.5286
2720.000000 -12.314 100.6935
2760.000000 -11.587 102.1293
2800.000000 -10.853 103.3943
2850.000000 -9.925 104.7329
2900.000000 -8.961 105.8583
2950.000000 -7.956 106.6562
3000.000000 -6.912 107.1686
3040.000000 -6.033 107.2988
3070.000000 -5.348 107.1788
3110.000000 -4.396 106.7229
3150.000000 -3.390 105.8406
3200.000000 -2.058 103.8957
3250.000000 -0.651 100.7172
3300.000000 0.805 95.8797
3350.000000 2.230 88.8458
3400.000000 3.464 79.1415
3450.000000 4.329 67.0183
3500.000000 4.695 53.5532
3550.000000 4.529 40.5104
3600.000000 3.933 29.4288
3650.000000 3.083 20.8847
3700.000000 2.138 14.7533
3750.000000 1.208 10.5383
3820.000000 0.032 6.8863
3870.000000 -0.698 5.3224
3950.000000 -1.690 3.9333
4000.000000 -2.218 3.5851
4060.000000 -2.776 3.5643
4120.000000 -3.248 3.8532
4180.000000 -3.640 4.3522
4250.000000 -4.013 5.1112
4310.000000 -4.264 5.8696
4370.000000 -4.450 6.6654
4440.000000 -4.591 7.5588
4500.000000 -4.648 8.2566
4550.000000 -4.648 8.7508
4620.000000 -4.580 9.2195
4680.000000 -4.455 9.2977
4750.000000 -4.231 8.8561
4820.000000 -3.929 7.5784
4870.000000 -3.681 5.9287
4940.000000 -3.332 2.2759
5000.000000 -3.106 -2.3697
5080.000000 -3.073 -10.8467
5150.000000 -3.465 -19.7090
5220.000000 -4.356 -28.3898
5300.000000 -5.963 -35.7116
5380.000000 -7.999 -38.5977
5450.000000 -9.923 -37.1576
5520.000000 -11.796 -32.1366
5600.000000 -13.624 -22.7453
5700.000000 -15.067 -7.8379
5800.000000 -15.432 7.2409
5900.000000 -15.008 19.7125
6000.000000 -14.267 28.3897
6080.000000 -13.717 32.9305
6150.000000 -13.357 36.0389
6220.000000 -13.093 39.1841
6300.000000 -12.805 43.2996
6400.000000 -12.329 48.9796
6500.000000 -11.681 54.5877
6600.000000 -10.881 59.6664
6700.000000 -9.963 64.0475
6800.000000 -8.938 67.7535
6900.000000 -7.802 70.7813
7000.000000 -6.540 73.0085
7100.000000 -5.133 74.2372
7200.000000 -3.578 74.1057
7300.000000 -1.907 72.0810
7400.000000 -0.208 67.4470
7500.000000 1.347 59.5028
7620.000000 2.697 45.5645
7750.000000 3.193 27.7666
7880.000000 2.729 12.0857
8000.000000 1.822 1.9523
8120.000000 0.832 -4.4304
8250.000000 -0.077 -8.5445
8380.000000 -0.724 -11.1937
8500.000000 -1.102 -13.4408
8620.000000 -1.341 -16.3314
8750.000000 -1.618 -20.5960
8850.000000 -1.983 -24.2270
9000.000000 -2.854 -27.9318
9120.000000 -3.581 -27.8970
9250.000000 -3.958 -25.7268
9380.000000 -3.720 -23.8755
9500.000000 -3.101 -24.4188
9620.000000 -2.352 -28.2032
9750.000000 -1.699 -36.3455
9880.000000 -1.500 -47.9237
10000.000000 -1.875 -59.7417
10150.000000 -3.072 -72.7736
10300.000000 -4.807 -81.7750
10440.000000 -6.604 -86.5616
10600.000000 -8.609 -88.8749
10750.000000 -10.327 -89.0472
10900.000000 -11.867 -87.9867
11060.000000 -13.332 -85.9683
11200.000000 -14.483 -83.7027
11380.000000 -15.807 -80.3344
11500.000000 -16.607 -77.8843
11720.000000 -17.926 -73.0346
11800.000000 -18.359 -71.1783
12060.000000 -19.628 -64.9190
12200.000000 -20.234 -61.3896
12410.000000 -21.040 -55.8707
12500.000000 -21.339 -53.4511
12650.000000 -21.775 -49.5043
12800.000000 -22.172 -45.6632
13150.000000 -22.973 -36.3299
13200.000000 -23.067 -34.9447
13400.000000 -23.391 -29.3198
13600.000000 -23.633 -23.5623
13800.000000 -23.805 -17.6350
14000.000000 -23.904 -11.3935
14300.000000 -23.873 -1.0783
14500.000000 -23.690 6.2627
14750.000000 -23.164 15.4074
15000.000000 -22.390 23.7722
15250.000000 -21.618 32.3492
15500.000000 -20.657 42.2354
15750.000000 -18.933 52.3238
16000.000000 -16.428 59.1882
16250.000000 -13.628 59.5535
16500.000000 -11.514 47.8673
16750.000000 -11.318 26.1994
17000.000000 -13.296 10.2258
17250.000000 -16.472 7.6267
17500.000000 -19.638 13.7474
17750.000000 -22.237 23.6366
18000.000000 -24.253 34.2524
18250.000000 -25.771 43.7079
18500.000000 -26.807 51.6240
18750.000000 -27.464 57.5368
19000.000000 -27.929 60.2015
19250.000000 -28.445 58.7898
19500.000000 -29.285 55.0037
19750.000000 -30.593 52.4534
20000.000000 -32.192 54.1091
20300.000000 -33.745 60.3942
