* REW测量的测量数据V5.20.13
* 来源: 麦克风 (Realtek High Definition Audio, MICROPHONE (主音), L, volume: no control
* 格式: 512k 对数扫频正弦, 1 扫频 at 0.0 dBFS 没有时间参考
* 日期: 2024-10-11 20:06:46
* REW 设置:
* C计权补偿: 关
*  目标电平: 75.0 dB
* 注释: ; 
* 测量: Haifsun WL6 Narrow Tips L
* 平滑: 1/24 倍频程
* 频率步进: 1/48 倍频程
* 起始频率: 20.300 Hz
*
* 频率(Hz) SPL(dB) 相位(角度)
20.299999 -19.293 -122.0410
20.600000 -19.252 -122.3095
20.900000 -19.170 -122.7754
21.200001 -19.091 -123.1827
21.400000 -19.040 -123.4268
21.799999 -18.939 -123.8939
22.000000 -18.889 -124.1315
22.400000 -18.792 -124.6147
22.700001 -18.725 -124.9719
23.000000 -18.664 -125.3129
23.299999 -18.605 -125.6385
23.600000 -18.547 -125.9619
24.000000 -18.473 -126.4150
24.299999 -18.421 -126.7820
24.700001 -18.358 -127.3023
25.000000 -18.316 -127.7036
25.400000 -18.264 -128.2341
25.799999 -18.210 -128.7452
26.200001 -18.149 -129.2444
26.500000 -18.099 -129.6249
26.900000 -18.026 -130.1507
27.200001 -17.970 -130.5532
27.600000 -17.897 -131.0799
28.000000 -17.823 -131.5719
28.500000 -17.730 -132.1421
29.000000 -17.636 -132.7148
29.500000 -17.550 -133.3217
30.000000 -17.479 -133.9333
30.400000 -17.429 -134.3983
30.700001 -17.392 -134.7327
31.100000 -17.344 -135.1753
31.500000 -17.298 -135.6246
32.000000 -17.243 -136.1808
32.500000 -17.193 -136.6881
33.000000 -17.140 -137.1348
33.500000 -17.080 -137.5668
34.000000 -17.019 -138.0303
34.500000 -16.963 -138.5168
35.000000 -16.909 -138.9988
35.500000 -16.854 -139.4903
36.000000 -16.797 -140.0321
36.500000 -16.748 -140.6186
37.000000 -16.713 -141.1780
37.500000 -16.683 -141.6497
38.200001 -16.632 -142.2112
38.700001 -16.589 -142.6337
39.500000 -16.527 -143.3676
40.000000 -16.491 -143.7909
40.599998 -16.442 -144.2475
41.200001 -16.386 -144.7043
41.799999 -16.335 -145.1831
42.500000 -16.287 -145.7430
43.099998 -16.253 -146.2292
43.700001 -16.221 -146.7355
44.400002 -16.184 -147.3066
45.000000 -16.145 -147.7479
45.500000 -16.107 -148.1060
46.200001 -16.065 -148.6063
46.799999 -16.048 -148.9778
47.500000 -16.032 -149.3750
48.200001 -16.008 -149.9859
48.700001 -16.002 -150.6037
49.400002 -16.018 -151.4432
50.000000 -16.025 -151.8645
50.799999 -15.966 -152.0916
51.500000 -15.879 -152.3215
52.200001 -15.815 -152.6457
53.000000 -15.784 -153.0153
53.799999 -15.772 -153.4237
54.500000 -15.762 -153.8597
55.200001 -15.747 -154.3315
56.000000 -15.720 -154.8596
57.000000 -15.681 -155.4621
58.000000 -15.646 -156.0350
59.000000 -15.624 -156.6139
60.000000 -15.612 -157.1214
60.799999 -15.601 -157.4579
61.500000 -15.586 -157.7695
62.200001 -15.573 -158.1319
63.000000 -15.564 -158.5541
64.000000 -15.552 -159.0226
65.000000 -15.532 -159.4425
66.000000 -15.509 -159.8458
67.000000 -15.490 -160.3136
68.000000 -15.485 -160.7891
69.000000 -15.476 -161.2365
70.000000 -15.464 -161.7278
71.000000 -15.457 -162.1877
72.000000 -15.451 -162.5625
73.000000 -15.447 -162.8824
74.000000 -15.446 -163.1829
75.000000 -15.444 -163.5118
76.199997 -15.431 -163.9631
77.500000 -15.411 -164.4852
78.800003 -15.403 -164.9920
80.000000 -15.406 -165.4327
81.199997 -15.401 -165.8306
82.500000 -15.388 -166.2392
83.800003 -15.384 -166.5919
85.000000 -15.380 -166.9251
86.199997 -15.379 -167.2734
87.500000 -15.376 -167.6349
88.500000 -15.376 -167.9312
90.000000 -15.381 -168.4010
91.199997 -15.383 -168.7873
92.500000 -15.381 -169.2184
93.800003 -15.377 -169.6135
95.000000 -15.375 -169.8935
96.199997 -15.376 -170.1243
97.500000 -15.381 -170.3976
98.800003 -15.386 -170.7358
100.000000 -15.390 -171.0526
101.500000 -15.390 -171.4003
103.000000 -15.392 -171.7234
104.400002 -15.399 -172.0056
106.000000 -15.409 -172.3580
107.500000 -15.417 -172.6824
109.000000 -15.419 -172.9351
110.599998 -15.425 -173.1720
112.000000 -15.435 -173.4301
113.800003 -15.445 -173.7952
115.000000 -15.452 -174.0162
117.199997 -15.451 -174.2811
118.000000 -15.442 -174.3109
120.599998 -15.431 -174.5518
122.000000 -15.460 -174.9410
124.099998 -15.492 -175.4185
125.000000 -15.495 -175.5610
126.500000 -15.498 -175.7894
128.000000 -15.503 -176.0002
131.500000 -15.513 -176.4534
132.000000 -15.517 -176.5188
134.000000 -15.533 -176.7455
136.000000 -15.545 -176.9757
138.000000 -15.557 -177.2152
140.000000 -15.563 -177.4353
143.000000 -15.569 -177.7588
145.000000 -15.579 -177.9702
147.500000 -15.581 -178.1567
150.000000 -15.568 -178.3302
152.500000 -15.593 -178.7181
155.000000 -15.623 -179.0109
157.500000 -15.640 -179.1624
160.000000 -15.646 -179.3278
162.500000 -15.643 -179.5136
165.000000 -15.639 -179.6895
167.500000 -15.645 -179.8857
170.000000 -15.656 179.8503
172.500000 -15.668 179.6107
175.000000 -15.684 179.4358
177.500000 -15.695 179.2578
180.000000 -15.701 179.0498
182.500000 -15.704 178.8173
185.000000 -15.705 178.5650
187.500000 -15.706 178.3743
190.000000 -15.708 178.2325
192.500000 -15.713 178.0526
195.000000 -15.720 177.8536
197.500000 -15.723 177.6509
200.000000 -15.719 177.4708
203.000000 -15.721 177.2529
206.000000 -15.732 177.0057
209.000000 -15.742 176.7579
212.000000 -15.752 176.5141
214.000000 -15.759 176.3411
218.000000 -15.769 176.0573
220.000000 -15.770 175.9156
224.000000 -15.776 175.5574
227.000000 -15.783 175.3207
230.000000 -15.787 175.1168
233.000000 -15.791 174.9243
236.000000 -15.796 174.7421
240.000000 -15.803 174.5096
243.000000 -15.809 174.3047
247.000000 -15.812 174.0156
250.000000 -15.812 173.7964
254.000000 -15.831 173.4984
258.000000 -15.852 173.1948
262.000000 -15.870 172.9048
265.000000 -15.880 172.7003
269.000000 -15.886 172.4560
272.000000 -15.891 172.2550
276.000000 -15.900 171.9760
280.000000 -15.911 171.7095
285.000000 -15.931 171.3601
290.000000 -15.948 170.9961
295.000000 -15.966 170.6664
300.000000 -15.984 170.3576
304.000000 -16.004 170.0914
307.000000 -16.021 169.8776
311.000000 -16.035 169.5627
315.000000 -16.051 169.2663
320.000000 -16.078 168.9590
325.000000 -16.103 168.6327
330.000000 -16.130 168.3082
335.000000 -16.144 167.9653
340.000000 -16.171 167.6199
345.000000 -16.216 167.3516
350.000000 -16.259 167.0735
355.000000 -16.283 166.7922
360.000000 -16.300 166.4844
365.000000 -16.330 166.1947
370.000000 -16.368 165.9009
375.000000 -16.408 165.5936
382.000000 -16.453 165.1855
387.000000 -16.486 164.9406
395.000000 -16.551 164.4869
400.000000 -16.593 164.1684
406.000000 -16.641 163.8124
412.000000 -16.694 163.5044
418.000000 -16.751 163.1982
425.000000 -16.822 162.8118
431.000000 -16.877 162.5284
437.000000 -16.931 162.2840
444.000000 -17.003 161.9904
450.000000 -17.066 161.7076
455.000000 -17.114 161.4795
462.000000 -17.182 161.1995
468.000000 -17.236 160.9725
475.000000 -17.308 160.7441
482.000000 -17.384 160.5256
487.000000 -17.440 160.3962
494.000000 -17.516 160.2304
500.000000 -17.582 160.0720
508.000000 -17.681 159.8402
515.000000 -17.770 159.6773
522.000000 -17.851 159.5257
530.000000 -17.945 159.3829
538.000000 -18.042 159.2264
545.000000 -18.122 159.1014
552.000000 -18.203 159.0387
560.000000 -18.304 159.0063
570.000000 -18.437 158.9587
580.000000 -18.568 159.0309
590.000000 -18.676 159.1513
600.000000 -18.770 159.1232
608.000000 -18.869 159.0498
615.000000 -18.968 159.0731
622.000000 -19.070 159.1845
630.000000 -19.182 159.3956
640.000000 -19.310 159.7398
650.000000 -19.419 160.1968
660.000000 -19.512 160.6498
670.000000 -19.589 161.0118
680.000000 -19.658 161.2564
690.000000 -19.721 161.4008
700.000000 -19.785 161.4514
710.000000 -19.879 161.2838
720.000000 -20.046 161.2195
730.000000 -20.239 161.7541
740.000000 -20.374 162.6023
750.000000 -20.460 163.3132
762.000000 -20.550 163.9952
775.000000 -20.649 164.6477
788.000000 -20.750 165.3071
800.000000 -20.845 165.9821
812.000000 -20.932 166.6488
825.000000 -21.025 167.3590
838.000000 -21.114 168.1143
850.000000 -21.188 168.8636
862.000000 -21.264 169.6557
875.000000 -21.344 170.4973
885.000000 -21.403 171.1345
900.000000 -21.484 172.0872
912.000000 -21.544 172.8560
925.000000 -21.601 173.7035
938.000000 -21.657 174.5643
950.000000 -21.706 175.3764
962.000000 -21.747 176.1733
975.000000 -21.782 177.0221
988.000000 -21.810 177.8763
1000.000000 -21.834 178.6684
1015.000000 -21.862 179.6722
1030.000000 -21.889 -179.3300
1044.000000 -21.909 -178.3934
1060.000000 -21.924 -177.3189
1075.000000 -21.934 -176.3207
1090.000000 -21.942 -175.3280
1106.000000 -21.947 -174.2813
1120.000000 -21.943 -173.3520
1138.000000 -21.929 -172.1436
1150.000000 -21.916 -171.3598
1172.000000 -21.882 -169.9365
1180.000000 -21.865 -169.3992
1206.000000 -21.821 -167.6824
1220.000000 -21.793 -166.7602
1241.000000 -21.737 -165.3296
1250.000000 -21.710 -164.7273
1265.000000 -21.665 -163.7482
1280.000000 -21.616 -162.7632
1315.000000 -21.483 -160.4046
1320.000000 -21.461 -160.0664
1340.000000 -21.368 -158.7141
1360.000000 -21.268 -157.3876
1380.000000 -21.158 -156.0571
1400.000000 -21.036 -154.6779
1430.000000 -20.843 -152.6353
1450.000000 -20.701 -151.2885
1475.000000 -20.511 -149.6610
1500.000000 -20.305 -148.1005
1525.000000 -20.080 -146.5631
1550.000000 -19.839 -145.0733
1575.000000 -19.582 -143.6458
1600.000000 -19.311 -142.2810
1625.000000 -19.025 -141.0117
1650.000000 -18.724 -139.8675
1675.000000 -18.404 -138.8430
1700.000000 -18.067 -137.9445
1725.000000 -17.717 -137.1813
1750.000000 -17.355 -136.5859
1775.000000 -16.984 -136.1566
1800.000000 -16.602 -135.8938
1825.000000 -16.212 -135.7938
1850.000000 -15.814 -135.8971
1875.000000 -15.411 -136.2218
1900.000000 -15.010 -136.7589
1925.000000 -14.613 -137.5151
1950.000000 -14.226 -138.5144
1975.000000 -13.853 -139.7288
2000.000000 -13.496 -141.1451
2030.000000 -13.098 -143.1181
2060.000000 -12.738 -145.3331
2090.000000 -12.422 -147.7471
2120.000000 -12.154 -150.3282
2140.000000 -12.004 -152.1081
2180.000000 -11.773 -155.7052
2200.000000 -11.691 -157.4901
2240.000000 -11.587 -160.9716
2270.000000 -11.556 -163.4478
2300.000000 -11.559 -165.7835
2330.000000 -11.591 -167.9606
2360.000000 -11.648 -169.9611
2400.000000 -11.752 -172.3524
2430.000000 -11.842 -173.9444
2470.000000 -11.972 -175.8213
2500.000000 -12.072 -177.0667
2540.000000 -12.210 -178.5356
2580.000000 -12.345 -179.8278
2620.000000 -12.477 179.0401
2650.000000 -12.574 178.2914
2690.000000 -12.696 177.3958
2720.000000 -12.782 176.7927
2760.000000 -12.891 176.0631
2800.000000 -12.997 175.3952
2850.000000 -13.122 174.6440
2900.000000 -13.235 174.0023
2950.000000 -13.338 173.4474
3000.000000 -13.433 172.9375
3040.000000 -13.506 172.5688
3070.000000 -13.558 172.3234
3110.000000 -13.621 172.0349
3150.000000 -13.678 171.7826
3200.000000 -13.744 171.5186
3250.000000 -13.799 171.2978
3300.000000 -13.842 171.1281
3350.000000 -13.877 171.0033
3400.000000 -13.900 170.9249
3450.000000 -13.911 170.8869
3500.000000 -13.907 170.8675
3550.000000 -13.887 170.8690
3600.000000 -13.850 170.8890
3650.000000 -13.799 170.9159
3700.000000 -13.729 170.9256
3750.000000 -13.640 170.9054
3820.000000 -13.484 170.8162
3870.000000 -13.347 170.6724
3950.000000 -13.079 170.2363
4000.000000 -12.883 169.7961
4060.000000 -12.621 169.0375
4120.000000 -12.331 167.9672
4180.000000 -12.013 166.5073
4250.000000 -11.618 164.2052
4310.000000 -11.276 161.6158
4370.000000 -10.950 158.3673
4440.000000 -10.622 153.6638
4500.000000 -10.423 148.8450
4550.000000 -10.344 144.3452
4620.000000 -10.398 137.5408
4680.000000 -10.616 131.5405
4750.000000 -11.075 124.7950
4820.000000 -11.726 118.7560
4870.000000 -12.284 115.0394
4940.000000 -13.152 110.7593
5000.000000 -13.944 107.9423
5080.000000 -15.023 105.3073
5150.000000 -15.958 103.9068
5220.000000 -16.864 103.2065
5300.000000 -17.855 103.1001
5380.000000 -18.792 103.5888
5450.000000 -19.564 104.4140
5520.000000 -20.294 105.5379
5600.000000 -21.079 107.1080
5700.000000 -21.990 109.4449
5800.000000 -22.829 112.1287
5900.000000 -23.600 115.0657
6000.000000 -24.305 118.1882
6080.000000 -24.826 120.8111
6150.000000 -25.258 123.1818
6220.000000 -25.667 125.6213
6300.000000 -26.107 128.4770
6400.000000 -26.629 132.2219
6500.000000 -27.109 136.4384
6600.000000 -27.433 140.7559
6700.000000 -27.706 144.2048
6800.000000 -28.046 147.7690
6900.000000 -28.360 151.7646
7000.000000 -28.620 155.9091
7100.000000 -28.825 160.1135
7200.000000 -28.974 164.3871
7300.000000 -29.079 168.6695
7400.000000 -29.139 172.9439
7500.000000 -29.151 177.2253
7620.000000 -29.098 -177.6407
7750.000000 -28.968 -172.2244
7880.000000 -28.771 -167.0100
8000.000000 -28.528 -162.2822
8120.000000 -28.219 -157.6001
8250.000000 -27.801 -152.6206
8380.000000 -27.287 -147.7324
8500.000000 -26.702 -143.3930
8620.000000 -25.987 -139.3024
8750.000000 -25.048 -135.2206
8850.000000 -24.188 -132.4568
9000.000000 -22.621 -129.3250
9120.000000 -21.071 -128.2067
9250.000000 -19.066 -129.3954
9380.000000 -16.860 -135.0004
9500.000000 -15.044 -146.3774
9620.000000 -13.989 -164.2829
9750.000000 -14.118 173.4552
9880.000000 -15.476 155.6549
10000.000000 -17.347 145.9615
10150.000000 -19.788 140.9299
10300.000000 -21.898 140.3820
10440.000000 -23.499 141.9471
10600.000000 -24.966 145.0612
10750.000000 -26.066 148.7415
10900.000000 -26.950 152.8535
11060.000000 -27.686 157.5333
11200.000000 -28.164 161.7497
11380.000000 -28.558 166.9991
11500.000000 -28.716 170.2844
11720.000000 -28.823 175.9974
11800.000000 -28.790 177.9657
12060.000000 -28.378 -176.5083
12200.000000 -27.956 -174.3457
12410.000000 -27.042 -172.9500
12500.000000 -26.563 -173.3855
12650.000000 -25.718 -176.0902
12800.000000 -24.958 178.1605
13150.000000 -24.716 154.4794
13200.000000 -24.935 150.8291
13400.000000 -26.403 138.7970
13600.000000 -28.480 132.4544
13800.000000 -30.696 131.2535
14000.000000 -32.770 133.6857
14300.000000 -35.455 141.8422
14500.000000 -36.968 148.9914
14750.000000 -38.583 159.1042
15000.000000 -39.922 170.6619
15250.000000 -41.044 -175.8617
15500.000000 -41.983 -161.0660
15750.000000 -42.702 -145.5623
16000.000000 -43.197 -128.4284
16250.000000 -43.387 -108.0493
16500.000000 -42.800 -85.6031
16750.000000 -40.924 -64.8657
17000.000000 -38.559 -53.0152
17250.000000 -37.103 -52.0082
17500.000000 -36.686 -53.9614
17750.000000 -36.814 -55.5682
18000.000000 -37.463 -57.9728
18250.000000 -38.694 -60.1983
18500.000000 -40.322 -59.5063
18750.000000 -42.008 -54.4923
19000.000000 -43.193 -47.2115
19250.000000 -43.617 -42.0898
19500.000000 -43.649 -40.1175
19750.000000 -43.482 -40.2979
20000.000000 -43.200 -42.0519
