* REW测量的测量数据V5.20.13
* 来源: 麦克风 (Realtek High Definition Audio, MICROPHONE (主音), L, volume: no control
* 格式: 512k 对数扫频正弦, 1 扫频 at 0.0 dBFS 没有时间参考
* 日期: 2024-10-11 20:08:06
* REW 设置:
* C计权补偿: 关
*  目标电平: 75.0 dB
* 注释: ; 
* 测量: Haifsun WL6 Narrow Tips R
* 平滑: 1/24 倍频程
* 频率步进: 1/48 倍频程
* 起始频率: 20.300 Hz
*
* 频率(Hz) SPL(dB) 相位(角度)
20.299999 -23.586 61.6052
20.600000 -23.531 61.3565
20.900000 -23.423 60.9140
21.200001 -23.325 60.5045
21.400000 -23.266 60.2633
21.799999 -23.151 59.8416
22.000000 -23.094 59.6516
22.400000 -22.981 59.2920
22.700001 -22.902 59.0232
23.000000 -22.832 58.7478
23.299999 -22.770 58.4677
23.600000 -22.717 58.1824
24.000000 -22.654 57.7912
24.299999 -22.609 57.4870
24.700001 -22.549 57.0598
25.000000 -22.500 56.7155
25.400000 -22.426 56.2187
25.799999 -22.343 55.6824
26.200001 -22.252 55.1102
26.500000 -22.184 54.6586
26.900000 -22.097 54.0376
27.200001 -22.040 53.5793
27.600000 -21.977 53.0197
28.000000 -21.925 52.5615
28.500000 -21.859 52.1290
29.000000 -21.774 51.7379
29.500000 -21.672 51.2488
30.000000 -21.568 50.6112
30.400000 -21.495 50.0400
30.700001 -21.449 49.6152
31.100000 -21.398 49.1002
31.500000 -21.354 48.6710
32.000000 -21.301 48.2517
32.500000 -21.240 47.8982
33.000000 -21.168 47.5045
33.500000 -21.092 47.0006
34.000000 -21.025 46.4021
34.500000 -20.972 45.8015
35.000000 -20.926 45.2809
35.500000 -20.877 44.8511
36.000000 -20.822 44.4594
36.500000 -20.762 44.0598
37.000000 -20.701 43.6452
37.500000 -20.638 43.2230
38.200001 -20.544 42.5923
38.700001 -20.481 42.0985
39.500000 -20.409 41.3360
40.000000 -20.378 40.9365
40.599998 -20.342 40.4965
41.200001 -20.302 40.0104
41.799999 -20.258 39.4679
42.500000 -20.197 38.8382
43.099998 -20.137 38.3598
43.700001 -20.080 37.9740
44.400002 -20.021 37.6139
45.000000 -19.977 37.2599
45.500000 -19.950 36.8620
46.200001 -19.919 36.1917
46.799999 -19.884 35.6043
47.500000 -19.832 35.0262
48.200001 -19.782 34.8273
48.700001 -19.733 34.9909
49.400002 -19.622 35.2433
50.000000 -19.532 34.9491
50.799999 -19.527 33.8788
51.500000 -19.599 33.0553
52.200001 -19.624 32.5145
53.000000 -19.575 31.8302
53.799999 -19.530 31.1761
54.500000 -19.502 30.8345
55.200001 -19.472 30.5234
56.000000 -19.445 30.0281
57.000000 -19.411 29.3340
58.000000 -19.369 28.6789
59.000000 -19.340 28.2105
60.000000 -19.311 27.8342
60.799999 -19.287 27.4040
61.500000 -19.274 26.9544
62.200001 -19.266 26.5386
63.000000 -19.253 26.1685
64.000000 -19.224 25.7841
65.000000 -19.195 25.3346
66.000000 -19.178 24.8341
67.000000 -19.166 24.3887
68.000000 -19.147 23.9990
69.000000 -19.124 23.5958
70.000000 -19.105 23.1453
71.000000 -19.091 22.7004
72.000000 -19.075 22.3006
73.000000 -19.066 21.9365
74.000000 -19.065 21.5949
75.000000 -19.063 21.2140
76.199997 -19.051 20.7049
77.500000 -19.027 20.2252
78.800003 -19.015 19.7919
80.000000 -19.018 19.3847
81.199997 -19.007 18.9966
82.500000 -18.980 18.6624
83.800003 -18.958 18.4058
85.000000 -18.949 18.0532
86.199997 -18.949 17.6418
87.500000 -18.936 17.2912
88.500000 -18.922 17.0224
90.000000 -18.922 16.5444
91.199997 -18.932 16.1263
92.500000 -18.939 15.6867
93.800003 -18.941 15.3097
95.000000 -18.939 15.0192
96.199997 -18.930 14.7880
97.500000 -18.915 14.5446
98.800003 -18.909 14.2788
100.000000 -18.911 14.0186
101.500000 -18.914 13.6450
103.000000 -18.915 13.2527
104.400002 -18.918 12.9510
106.000000 -18.927 12.6734
107.500000 -18.932 12.4058
109.000000 -18.926 12.1290
110.599998 -18.922 11.8415
112.000000 -18.925 11.6219
113.800003 -18.930 11.3446
115.000000 -18.930 11.1448
117.199997 -18.953 10.8668
118.000000 -18.981 10.8100
120.599998 -19.050 10.6170
122.000000 -19.019 10.3085
124.099998 -18.987 9.8583
125.000000 -18.985 9.7009
126.500000 -18.987 9.4610
128.000000 -18.990 9.2531
131.500000 -19.012 8.8351
132.000000 -19.012 8.7947
134.000000 -19.006 8.6259
136.000000 -18.998 8.4205
138.000000 -19.003 8.2188
140.000000 -19.011 8.0086
143.000000 -19.031 7.6570
145.000000 -19.042 7.5051
147.500000 -19.028 7.2046
150.000000 -19.011 6.7159
152.500000 -19.035 6.7575
155.000000 -19.053 6.8381
157.500000 -19.066 6.7010
160.000000 -19.072 6.5644
162.500000 -19.078 6.4537
165.000000 -19.094 6.3663
167.500000 -19.115 6.2597
170.000000 -19.095 6.0261
172.500000 -19.085 5.8077
175.000000 -19.101 5.6272
177.500000 -19.114 5.4588
180.000000 -19.111 5.2974
182.500000 -19.100 5.1609
185.000000 -19.097 5.0321
187.500000 -19.100 4.9122
190.000000 -19.098 4.8098
192.500000 -19.086 4.6905
195.000000 -19.077 4.5595
197.500000 -19.077 4.4256
200.000000 -19.079 4.2679
203.000000 -19.083 4.0655
206.000000 -19.092 3.9012
209.000000 -19.100 3.7806
212.000000 -19.098 3.6738
214.000000 -19.094 3.6001
218.000000 -19.092 3.4845
220.000000 -19.094 3.4113
224.000000 -19.096 3.1875
227.000000 -19.095 3.0032
230.000000 -19.092 2.8393
233.000000 -19.093 2.6971
236.000000 -19.093 2.5665
240.000000 -19.090 2.4023
243.000000 -19.081 2.2978
247.000000 -19.055 2.1810
250.000000 -19.036 2.0513
254.000000 -19.054 1.8928
258.000000 -19.077 1.7504
262.000000 -19.087 1.6196
265.000000 -19.090 1.4743
269.000000 -19.093 1.2604
272.000000 -19.093 1.1231
276.000000 -19.089 0.9790
280.000000 -19.084 0.8603
285.000000 -19.081 0.6751
290.000000 -19.084 0.4437
295.000000 -19.082 0.1702
300.000000 -19.079 -0.0595
304.000000 -19.086 -0.2579
307.000000 -19.093 -0.4090
311.000000 -19.096 -0.5698
315.000000 -19.087 -0.6853
320.000000 -19.091 -0.9082
325.000000 -19.094 -1.1633
330.000000 -19.089 -1.2896
335.000000 -19.103 -1.3651
340.000000 -19.136 -1.5730
345.000000 -19.144 -1.8364
350.000000 -19.138 -2.0741
355.000000 -19.133 -2.1593
360.000000 -19.131 -2.2978
365.000000 -19.133 -2.5271
370.000000 -19.141 -2.7315
375.000000 -19.157 -2.9385
382.000000 -19.173 -3.2598
387.000000 -19.180 -3.4654
395.000000 -19.204 -3.8183
400.000000 -19.225 -4.0027
406.000000 -19.245 -4.1970
412.000000 -19.258 -4.4554
418.000000 -19.274 -4.7487
425.000000 -19.292 -5.0459
431.000000 -19.315 -5.2210
437.000000 -19.345 -5.3721
444.000000 -19.377 -5.6632
450.000000 -19.404 -5.9590
455.000000 -19.433 -6.1913
462.000000 -19.464 -6.4737
468.000000 -19.482 -6.6530
475.000000 -19.513 -6.8348
482.000000 -19.552 -7.0342
487.000000 -19.583 -7.1918
494.000000 -19.627 -7.4070
500.000000 -19.656 -7.5797
508.000000 -19.700 -7.7813
515.000000 -19.753 -7.9627
522.000000 -19.806 -8.1800
530.000000 -19.862 -8.4120
538.000000 -19.915 -8.6050
545.000000 -19.960 -8.8098
552.000000 -20.000 -9.0058
560.000000 -20.047 -9.1939
570.000000 -20.116 -9.4940
580.000000 -20.188 -9.9006
590.000000 -20.266 -10.5143
600.000000 -20.442 -11.4970
608.000000 -20.727 -11.7462
615.000000 -20.968 -10.7757
622.000000 -21.055 -9.4225
630.000000 -21.033 -8.4868
640.000000 -21.019 -8.0445
650.000000 -21.045 -7.8102
660.000000 -21.096 -7.5960
670.000000 -21.144 -7.3442
680.000000 -21.178 -7.0998
690.000000 -21.210 -6.8898
700.000000 -21.257 -6.7028
710.000000 -21.309 -6.5878
720.000000 -21.364 -6.4482
730.000000 -21.428 -6.2272
740.000000 -21.496 -5.9773
750.000000 -21.565 -5.7232
762.000000 -21.643 -5.4100
775.000000 -21.717 -5.0505
788.000000 -21.796 -4.5851
800.000000 -21.869 -4.1260
812.000000 -21.939 -3.6758
825.000000 -22.005 -3.1122
838.000000 -22.074 -2.5306
850.000000 -22.142 -2.0045
862.000000 -22.195 -1.4292
875.000000 -22.247 -0.7757
885.000000 -22.289 -0.2658
900.000000 -22.348 0.4833
912.000000 -22.387 1.0686
925.000000 -22.432 1.7153
938.000000 -22.475 2.4156
950.000000 -22.507 3.0939
962.000000 -22.528 3.7015
975.000000 -22.548 4.3339
988.000000 -22.568 5.0030
1000.000000 -22.582 5.6342
1015.000000 -22.595 6.4449
1030.000000 -22.603 7.2512
1044.000000 -22.611 7.9671
1060.000000 -22.621 8.7469
1075.000000 -22.619 9.4573
1090.000000 -22.608 10.1719
1106.000000 -22.597 10.9542
1120.000000 -22.591 11.6462
1138.000000 -22.587 12.5308
1150.000000 -22.581 13.1054
1172.000000 -22.561 14.1215
1180.000000 -22.554 14.4864
1206.000000 -22.549 15.6914
1220.000000 -22.563 16.3434
1241.000000 -22.649 17.4779
1250.000000 -22.722 18.2493
1265.000000 -22.824 20.5165
1280.000000 -22.672 23.7319
1315.000000 -21.839 25.2702
1320.000000 -21.795 25.0669
1340.000000 -21.721 24.8206
1360.000000 -21.678 25.2915
1380.000000 -21.622 26.0176
1400.000000 -21.547 26.8974
1430.000000 -21.418 28.3490
1450.000000 -21.317 29.2881
1475.000000 -21.175 30.4542
1500.000000 -21.032 31.6762
1525.000000 -20.877 32.9330
1550.000000 -20.710 34.1487
1575.000000 -20.525 35.3298
1600.000000 -20.328 36.4887
1625.000000 -20.126 37.6151
1650.000000 -19.905 38.7032
1675.000000 -19.664 39.7653
1700.000000 -19.410 40.7612
1725.000000 -19.144 41.6613
1750.000000 -18.865 42.4592
1775.000000 -18.572 43.1814
1800.000000 -18.265 43.8267
1825.000000 -17.941 44.3863
1850.000000 -17.602 44.8011
1875.000000 -17.246 45.0550
1900.000000 -16.878 45.1655
1925.000000 -16.498 45.1192
1950.000000 -16.109 44.8810
1975.000000 -15.714 44.4218
2000.000000 -15.319 43.7317
2030.000000 -14.850 42.6210
2060.000000 -14.389 41.1703
2090.000000 -13.948 39.3796
2120.000000 -13.533 37.2640
2140.000000 -13.276 35.6718
2180.000000 -12.826 32.0977
2200.000000 -12.638 30.1591
2240.000000 -12.343 26.0904
2270.000000 -12.194 22.9743
2300.000000 -12.106 19.8895
2330.000000 -12.075 16.8940
2360.000000 -12.093 14.0443
2400.000000 -12.182 10.5504
2430.000000 -12.286 8.2012
2470.000000 -12.460 5.4369
2500.000000 -12.608 3.6223
2540.000000 -12.816 1.5362
2580.000000 -13.029 -0.2182
2620.000000 -13.240 -1.6895
2650.000000 -13.394 -2.6393
2690.000000 -13.589 -3.7335
2720.000000 -13.728 -4.4400
2760.000000 -13.904 -5.2590
2800.000000 -14.068 -5.9656
2850.000000 -14.259 -6.7212
2900.000000 -14.435 -7.3572
2950.000000 -14.597 -7.8888
3000.000000 -14.747 -8.3554
3040.000000 -14.863 -8.6823
3070.000000 -14.946 -8.9045
3110.000000 -15.050 -9.1632
3150.000000 -15.147 -9.3628
3200.000000 -15.263 -9.5595
3250.000000 -15.372 -9.7113
3300.000000 -15.472 -9.8085
3350.000000 -15.559 -9.8288
3400.000000 -15.640 -9.7880
3450.000000 -15.710 -9.6905
3500.000000 -15.766 -9.5484
3550.000000 -15.810 -9.3669
3600.000000 -15.844 -9.1310
3650.000000 -15.865 -8.8476
3700.000000 -15.870 -8.5402
3750.000000 -15.859 -8.2186
3820.000000 -15.817 -7.7493
3870.000000 -15.763 -7.4159
3950.000000 -15.637 -6.9567
4000.000000 -15.535 -6.7174
4060.000000 -15.387 -6.4862
4120.000000 -15.209 -6.3767
4180.000000 -14.997 -6.4235
4250.000000 -14.708 -6.7395
4310.000000 -14.429 -7.2873
4370.000000 -14.123 -8.1543
4440.000000 -13.734 -9.6686
4500.000000 -13.385 -11.4829
4550.000000 -13.095 -13.4174
4620.000000 -12.705 -16.8608
4680.000000 -12.413 -20.5631
4750.000000 -12.164 -25.7455
4820.000000 -12.061 -31.7087
4870.000000 -12.100 -36.2784
4940.000000 -12.329 -42.7988
5000.000000 -12.688 -48.1860
5080.000000 -13.366 -54.6065
5150.000000 -14.104 -59.2587
5220.000000 -14.925 -62.9184
5300.000000 -15.912 -65.9216
5380.000000 -16.908 -67.8228
5450.000000 -17.760 -68.7150
5520.000000 -18.580 -69.0264
5600.000000 -19.476 -68.8134
5700.000000 -20.521 -67.8320
5800.000000 -21.488 -66.2447
5900.000000 -22.379 -64.2153
6000.000000 -23.194 -61.8083
6080.000000 -23.801 -59.6715
6150.000000 -24.305 -57.6858
6220.000000 -24.787 -55.5844
6300.000000 -25.316 -52.9517
6400.000000 -25.941 -49.1032
6500.000000 -26.466 -44.5559
6600.000000 -26.717 -39.7504
6700.000000 -26.830 -37.0726
6800.000000 -27.176 -34.7337
6900.000000 -27.559 -31.5181
7000.000000 -27.876 -27.9507
7100.000000 -28.136 -24.2110
7200.000000 -28.341 -20.3770
7300.000000 -28.498 -16.4928
7400.000000 -28.611 -12.6078
7500.000000 -28.681 -8.7069
7620.000000 -28.715 -3.9519
7750.000000 -28.675 1.2688
7880.000000 -28.547 6.4868
8000.000000 -28.339 11.2344
8120.000000 -28.047 15.8566
8250.000000 -27.638 20.7187
8380.000000 -27.117 25.3908
8500.000000 -26.521 29.4381
8620.000000 -25.801 33.1600
8750.000000 -24.862 36.7542
8850.000000 -24.004 39.0869
9000.000000 -22.432 41.5132
9120.000000 -20.867 41.9109
9250.000000 -18.856 39.5398
9380.000000 -16.729 32.0398
9500.000000 -15.145 18.3820
9620.000000 -14.470 -1.1585
9750.000000 -15.057 -22.9532
9880.000000 -16.759 -38.5785
10000.000000 -18.787 -46.2844
10150.000000 -21.268 -49.6719
10300.000000 -23.359 -49.2529
10440.000000 -24.944 -47.0589
10600.000000 -26.408 -43.2928
10750.000000 -27.499 -39.0277
10900.000000 -28.329 -34.4919
11060.000000 -28.990 -29.9010
11200.000000 -29.453 -26.1308
11380.000000 -29.926 -21.2123
11500.000000 -30.155 -17.8713
11720.000000 -30.376 -11.8504
11800.000000 -30.382 -9.7555
12060.000000 -30.100 -3.6389
12200.000000 -29.754 -1.0564
12410.000000 -28.954 1.2879
12500.000000 -28.511 1.4375
12650.000000 -27.672 -0.0092
12800.000000 -26.820 -4.2669
13150.000000 -26.030 -26.4243
13200.000000 -26.163 -30.3382
13400.000000 -27.357 -44.4174
13600.000000 -29.343 -53.4532
13800.000000 -31.679 -56.8938
14000.000000 -34.018 -55.8021
14300.000000 -37.171 -48.6349
14500.000000 -39.011 -41.7280
14750.000000 -41.040 -31.3548
15000.000000 -42.842 -18.9925
15250.000000 -44.550 -3.9473
15500.000000 -46.159 13.9262
15750.000000 -47.492 35.2820
16000.000000 -48.310 60.5676
16250.000000 -48.294 88.6941
16500.000000 -46.937 118.7434
16750.000000 -44.058 145.8728
17000.000000 -40.703 163.0520
17250.000000 -37.959 168.9341
17500.000000 -36.037 167.7292
17750.000000 -35.014 162.8873
18000.000000 -34.778 157.7453
18250.000000 -34.722 152.9020
18500.000000 -34.832 145.4223
18750.000000 -35.433 137.3486
19000.000000 -36.309 128.5310
19250.000000 -37.651 119.1367
19500.000000 -39.497 112.9145
19750.000000 -41.455 111.4685
20000.000000 -43.034 113.4559
