* REW测量的测量数据V5.20.13
* 来源: 麦克风 (Realtek High Definition Audio, MICROPHONE (主音), L, volume: no control
* 格式: 512k 对数扫频正弦, 1 扫频 at 0.0 dBFS 没有时间参考
* 日期: 2024-10-9 21:53:30
* REW 设置:
* C计权补偿: 关
*  目标电平: 75.0 dB
* 注释: ; 
* 测量: NiceHCK YD520 White Tips L
* 平滑: 1/24 倍频程
* 频率步进: 1/48 倍频程
* 起始频率: 20.300 Hz
*
* 频率(Hz) SPL(dB) 相位(角度)
20.299999 -12.138 -153.3131
20.600000 -12.124 -153.5342
20.900000 -12.095 -153.9246
21.200001 -12.071 -154.2831
21.400000 -12.057 -154.5051
21.799999 -12.035 -154.9361
22.000000 -12.026 -155.1536
22.400000 -12.013 -155.5924
22.700001 -12.007 -155.9195
23.000000 -12.003 -156.2403
23.299999 -12.000 -156.5593
23.600000 -11.995 -156.8895
24.000000 -11.989 -157.3670
24.299999 -11.986 -157.7567
24.700001 -11.988 -158.3028
25.000000 -11.994 -158.7120
25.400000 -12.005 -159.2289
25.799999 -12.014 -159.6933
26.200001 -12.016 -160.1176
26.500000 -12.013 -160.4327
26.900000 -12.004 -160.8722
27.200001 -11.998 -161.2160
27.600000 -11.996 -161.6697
28.000000 -11.998 -162.0826
28.500000 -11.998 -162.5330
29.000000 -11.988 -162.9807
29.500000 -11.973 -163.4929
30.000000 -11.963 -164.0446
30.400000 -11.959 -164.4587
30.700001 -11.956 -164.7372
31.100000 -11.949 -165.0791
31.500000 -11.939 -165.4170
32.000000 -11.931 -165.8597
32.500000 -11.938 -166.2909
33.000000 -11.956 -166.6529
33.500000 -11.972 -166.9534
34.000000 -11.980 -167.2673
34.500000 -11.983 -167.6466
35.000000 -11.988 -168.0656
35.500000 -11.994 -168.4640
36.000000 -11.997 -168.8201
36.500000 -11.994 -169.1571
37.000000 -11.992 -169.4959
37.500000 -11.994 -169.8284
38.200001 -12.001 -170.2663
38.700001 -12.005 -170.5795
39.500000 -12.009 -171.1134
40.000000 -12.012 -171.4382
40.599998 -12.014 -171.7883
41.200001 -12.013 -172.1083
41.799999 -12.015 -172.4235
42.500000 -12.026 -172.7906
43.099998 -12.042 -173.0997
43.700001 -12.060 -173.4007
44.400002 -12.076 -173.7310
45.000000 -12.079 -174.0017
45.500000 -12.076 -174.2375
46.200001 -12.075 -174.5855
46.799999 -12.086 -174.8641
47.500000 -12.104 -175.1571
48.200001 -12.124 -175.5020
48.700001 -12.140 -175.8082
49.400002 -12.167 -176.2458
50.000000 -12.186 -176.5372
50.799999 -12.189 -176.7944
51.500000 -12.177 -176.9874
52.200001 -12.172 -177.2063
53.000000 -12.186 -177.4792
53.799999 -12.211 -177.7579
54.500000 -12.228 -178.0247
55.200001 -12.239 -178.3282
56.000000 -12.250 -178.6767
57.000000 -12.266 -179.0443
58.000000 -12.283 -179.4029
59.000000 -12.307 -179.7744
60.000000 -12.333 179.9139
60.799999 -12.351 179.6973
61.500000 -12.367 179.5031
62.200001 -12.384 179.2893
63.000000 -12.402 179.0153
64.000000 -12.423 178.6618
65.000000 -12.443 178.3946
66.000000 -12.459 178.2294
67.000000 -12.469 178.0252
68.000000 -12.488 177.7162
69.000000 -12.512 177.3986
70.000000 -12.530 177.1143
71.000000 -12.546 176.8440
72.000000 -12.568 176.6059
73.000000 -12.594 176.4044
74.000000 -12.619 176.2114
75.000000 -12.642 176.0044
76.199997 -12.663 175.7128
77.500000 -12.689 175.3839
78.800003 -12.713 175.1118
80.000000 -12.733 174.8616
81.199997 -12.756 174.6430
82.500000 -12.781 174.4417
83.800003 -12.806 174.2384
85.000000 -12.825 173.9930
86.199997 -12.845 173.7184
87.500000 -12.873 173.4599
88.500000 -12.897 173.3074
90.000000 -12.929 173.0627
91.199997 -12.952 172.8154
92.500000 -12.979 172.5674
93.800003 -13.002 172.3641
95.000000 -13.025 172.2068
96.199997 -13.051 172.0784
97.500000 -13.078 171.9240
98.800003 -13.104 171.7338
100.000000 -13.126 171.5394
101.500000 -13.155 171.2961
103.000000 -13.186 171.0998
104.400002 -13.212 170.9385
106.000000 -13.250 170.7539
107.500000 -13.285 170.5794
109.000000 -13.311 170.3968
110.599998 -13.336 170.2147
112.000000 -13.367 170.0430
113.800003 -13.412 169.8122
115.000000 -13.436 169.6788
117.199997 -13.468 169.5262
118.000000 -13.480 169.5099
120.599998 -13.528 169.4257
122.000000 -13.563 169.2344
124.099998 -13.613 168.9528
125.000000 -13.632 168.8761
126.500000 -13.660 168.7793
128.000000 -13.688 168.6790
131.500000 -13.750 168.3941
132.000000 -13.759 168.3538
134.000000 -13.799 168.2245
136.000000 -13.835 168.1171
138.000000 -13.869 168.0361
140.000000 -13.902 167.9731
143.000000 -13.968 167.7948
145.000000 -14.009 167.6816
147.500000 -14.037 167.5498
150.000000 -14.064 167.3772
152.500000 -14.115 167.3424
155.000000 -14.170 167.2877
157.500000 -14.213 167.2270
160.000000 -14.253 167.1829
162.500000 -14.290 167.1125
165.000000 -14.324 167.0266
167.500000 -14.361 166.9297
170.000000 -14.402 166.8188
172.500000 -14.449 166.7522
175.000000 -14.494 166.6944
177.500000 -14.535 166.6238
180.000000 -14.577 166.5779
182.500000 -14.619 166.5709
185.000000 -14.660 166.5712
187.500000 -14.695 166.5867
190.000000 -14.719 166.5870
192.500000 -14.744 166.5605
195.000000 -14.782 166.5598
197.500000 -14.818 166.5701
200.000000 -14.844 166.5554
203.000000 -14.877 166.4788
206.000000 -14.914 166.3843
209.000000 -14.954 166.3196
212.000000 -14.989 166.2800
214.000000 -15.009 166.2421
218.000000 -15.056 166.1652
220.000000 -15.086 166.1559
224.000000 -15.142 166.1166
227.000000 -15.180 166.0422
230.000000 -15.215 165.9878
233.000000 -15.250 165.9847
236.000000 -15.288 166.0025
240.000000 -15.344 166.0293
243.000000 -15.387 166.0142
247.000000 -15.450 165.9986
250.000000 -15.500 166.0142
254.000000 -15.552 166.0518
258.000000 -15.604 166.0862
262.000000 -15.664 166.1857
265.000000 -15.707 166.2289
269.000000 -15.761 166.2298
272.000000 -15.798 166.2502
276.000000 -15.847 166.2989
280.000000 -15.894 166.3666
285.000000 -15.960 166.4553
290.000000 -16.028 166.5535
295.000000 -16.090 166.6415
300.000000 -16.158 166.7382
304.000000 -16.222 166.8878
307.000000 -16.270 167.0233
311.000000 -16.330 167.1913
315.000000 -16.392 167.3611
320.000000 -16.470 167.6859
325.000000 -16.539 168.1271
330.000000 -16.606 168.6163
335.000000 -16.669 169.1642
340.000000 -16.695 169.7434
345.000000 -16.684 170.2121
350.000000 -16.660 170.5585
355.000000 -16.638 170.7761
360.000000 -16.621 170.8594
365.000000 -16.614 170.8827
370.000000 -16.623 170.8923
375.000000 -16.649 170.8829
382.000000 -16.699 170.8636
387.000000 -16.734 170.8949
395.000000 -16.796 170.9158
400.000000 -16.838 170.9660
406.000000 -16.886 171.0826
412.000000 -16.938 171.1939
418.000000 -16.991 171.3257
425.000000 -17.048 171.5223
431.000000 -17.096 171.6754
437.000000 -17.152 171.8759
444.000000 -17.221 172.1504
450.000000 -17.279 172.3732
455.000000 -17.326 172.5982
462.000000 -17.388 172.9095
468.000000 -17.435 173.1496
475.000000 -17.489 173.4917
482.000000 -17.549 173.8578
487.000000 -17.592 174.1105
494.000000 -17.646 174.4593
500.000000 -17.690 174.7809
508.000000 -17.747 175.2066
515.000000 -17.795 175.5354
522.000000 -17.849 175.8680
530.000000 -17.915 176.3051
538.000000 -17.969 176.8085
545.000000 -18.011 177.2731
552.000000 -18.056 177.7383
560.000000 -18.116 178.2556
570.000000 -18.187 178.9533
580.000000 -18.243 179.6730
590.000000 -18.301 -179.6216
600.000000 -18.355 -178.8359
608.000000 -18.391 -178.1497
615.000000 -18.418 -177.5390
622.000000 -18.442 -176.9246
630.000000 -18.461 -176.2038
640.000000 -18.472 -175.3046
650.000000 -18.477 -174.4670
660.000000 -18.479 -173.6724
670.000000 -18.473 -172.9175
680.000000 -18.463 -172.1870
690.000000 -18.448 -171.4556
700.000000 -18.428 -170.7427
710.000000 -18.408 -170.1105
720.000000 -18.394 -169.5523
730.000000 -18.379 -168.9973
740.000000 -18.364 -168.4214
750.000000 -18.352 -167.8580
762.000000 -18.348 -167.1924
775.000000 -18.341 -166.4445
788.000000 -18.328 -165.6771
800.000000 -18.315 -164.9628
812.000000 -18.302 -164.2493
825.000000 -18.286 -163.4530
838.000000 -18.272 -162.6807
850.000000 -18.255 -161.9691
862.000000 -18.234 -161.2298
875.000000 -18.209 -160.4199
885.000000 -18.184 -159.8064
900.000000 -18.142 -158.9375
912.000000 -18.105 -158.2537
925.000000 -18.064 -157.5053
938.000000 -18.022 -156.7654
950.000000 -17.980 -156.1042
962.000000 -17.937 -155.4596
975.000000 -17.887 -154.7744
988.000000 -17.832 -154.1053
1000.000000 -17.778 -153.4989
1015.000000 -17.714 -152.7688
1030.000000 -17.647 -152.0613
1044.000000 -17.582 -151.3978
1060.000000 -17.504 -150.6812
1075.000000 -17.430 -150.0506
1090.000000 -17.353 -149.4260
1106.000000 -17.271 -148.7733
1120.000000 -17.201 -148.2181
1138.000000 -17.113 -147.5236
1150.000000 -17.054 -147.0798
1172.000000 -16.940 -146.3091
1180.000000 -16.898 -146.0356
1206.000000 -16.766 -145.1185
1220.000000 -16.695 -144.6399
1241.000000 -16.587 -143.9438
1250.000000 -16.542 -143.6520
1265.000000 -16.464 -143.1769
1280.000000 -16.384 -142.7040
1315.000000 -16.205 -141.5949
1320.000000 -16.180 -141.4346
1340.000000 -16.079 -140.7954
1360.000000 -15.979 -140.1676
1380.000000 -15.878 -139.5322
1400.000000 -15.779 -138.8956
1430.000000 -15.637 -137.9452
1450.000000 -15.541 -137.3063
1475.000000 -15.419 -136.4755
1500.000000 -15.300 -135.6356
1525.000000 -15.183 -134.7820
1550.000000 -15.063 -133.9051
1575.000000 -14.936 -133.0017
1600.000000 -14.809 -132.0786
1625.000000 -14.682 -131.1318
1650.000000 -14.550 -130.1561
1675.000000 -14.409 -129.1564
1700.000000 -14.258 -128.1633
1725.000000 -14.096 -127.1710
1750.000000 -13.925 -126.1499
1775.000000 -13.739 -125.1303
1800.000000 -13.536 -124.1513
1825.000000 -13.320 -123.1914
1850.000000 -13.089 -122.2659
1875.000000 -12.841 -121.4094
1900.000000 -12.577 -120.6334
1925.000000 -12.299 -119.9414
1950.000000 -12.008 -119.3523
1975.000000 -11.706 -118.8932
2000.000000 -11.399 -118.5778
2030.000000 -11.033 -118.3715
2060.000000 -10.669 -118.3178
2090.000000 -10.310 -118.3989
2120.000000 -9.955 -118.6059
2140.000000 -9.722 -118.8090
2180.000000 -9.269 -119.3441
2200.000000 -9.048 -119.6673
2240.000000 -8.616 -120.4141
2270.000000 -8.297 -121.0502
2300.000000 -7.984 -121.7576
2330.000000 -7.675 -122.5278
2360.000000 -7.368 -123.3710
2400.000000 -6.964 -124.6384
2430.000000 -6.665 -125.7060
2470.000000 -6.274 -127.2900
2500.000000 -5.988 -128.6020
2540.000000 -5.622 -130.5281
2580.000000 -5.278 -132.6659
2620.000000 -4.959 -135.0115
2650.000000 -4.741 -136.8970
2690.000000 -4.480 -139.5653
2720.000000 -4.310 -141.6597
2760.000000 -4.121 -144.5408
2800.000000 -3.979 -147.4904
2850.000000 -3.868 -151.1995
2900.000000 -3.828 -154.8305
2950.000000 -3.850 -158.2808
3000.000000 -3.928 -161.4999
3040.000000 -4.026 -163.8698
3070.000000 -4.116 -165.5159
3110.000000 -4.250 -167.5248
3150.000000 -4.397 -169.3206
3200.000000 -4.593 -171.2847
3250.000000 -4.794 -172.9555
3300.000000 -4.992 -174.3436
3350.000000 -5.184 -175.4770
3400.000000 -5.365 -176.3781
3450.000000 -5.532 -177.0776
3500.000000 -5.680 -177.6083
3550.000000 -5.806 -177.9872
3600.000000 -5.913 -178.2369
3650.000000 -5.997 -178.3897
3700.000000 -6.058 -178.4695
3750.000000 -6.096 -178.4940
3820.000000 -6.110 -178.4679
3870.000000 -6.089 -178.4423
3950.000000 -6.001 -178.4599
4000.000000 -5.914 -178.5340
4060.000000 -5.778 -178.7313
4120.000000 -5.609 -179.1107
4180.000000 -5.409 -179.7317
4250.000000 -5.142 179.1904
4310.000000 -4.894 177.9199
4370.000000 -4.635 176.2778
4440.000000 -4.329 173.8205
4500.000000 -4.078 171.1994
4550.000000 -3.887 168.6278
4620.000000 -3.671 164.3941
4680.000000 -3.560 160.1855
4750.000000 -3.553 154.7531
4820.000000 -3.704 149.0489
4870.000000 -3.915 145.0016
4940.000000 -4.347 139.6402
5000.000000 -4.826 135.5231
5080.000000 -5.579 130.9185
5150.000000 -6.305 127.7610
5220.000000 -7.059 125.3710
5300.000000 -7.924 123.4614
5380.000000 -8.778 122.2867
5450.000000 -9.505 121.7725
5520.000000 -10.210 121.6846
5600.000000 -10.984 122.0400
5700.000000 -11.898 123.0810
5800.000000 -12.747 124.6629
5900.000000 -13.523 126.6755
6000.000000 -14.226 129.0592
6080.000000 -14.735 131.1729
6150.000000 -15.146 133.1134
6220.000000 -15.524 135.1063
6300.000000 -15.920 137.4449
6400.000000 -16.371 140.4688
6500.000000 -16.783 143.5943
6600.000000 -17.153 146.8354
6700.000000 -17.475 150.2433
6800.000000 -17.739 153.8551
6900.000000 -17.937 157.5863
7000.000000 -18.065 161.3260
7100.000000 -18.124 165.0180
7200.000000 -18.119 168.6364
7300.000000 -18.059 172.1767
7400.000000 -17.946 175.6275
7500.000000 -17.771 178.9987
7620.000000 -17.459 -177.0743
7750.000000 -16.989 -173.0982
7880.000000 -16.372 -169.5973
8000.000000 -15.643 -166.9660
8120.000000 -14.732 -165.1803
8250.000000 -13.518 -164.8137
8380.000000 -12.110 -167.1187
8500.000000 -10.786 -172.8880
8620.000000 -9.737 176.8347
8750.000000 -9.325 161.4503
8850.000000 -9.678 149.0143
9000.000000 -11.165 134.2181
9120.000000 -12.820 127.2702
9250.000000 -14.691 123.9011
9380.000000 -16.426 123.4544
9500.000000 -17.845 124.6808
9620.000000 -19.089 126.9070
9750.000000 -20.260 130.0381
9880.000000 -21.273 133.6569
10000.000000 -22.085 137.2712
10150.000000 -22.964 142.0150
10300.000000 -23.720 146.9174
10440.000000 -24.327 151.5858
10600.000000 -24.926 156.9883
10750.000000 -25.404 162.1042
10900.000000 -25.807 167.2978
11060.000000 -26.150 172.8749
11200.000000 -26.381 177.7428
11380.000000 -26.582 -176.0174
11500.000000 -26.656 -171.8702
11720.000000 -26.675 -164.3506
11800.000000 -26.646 -161.6442
12060.000000 -26.346 -152.8029
12200.000000 -26.009 -148.2956
12410.000000 -25.378 -142.6140
12500.000000 -25.076 -140.4234
12650.000000 -24.497 -137.0275
12800.000000 -23.807 -134.1062
13150.000000 -21.801 -130.3943
13200.000000 -21.482 -130.3683
13400.000000 -20.207 -131.9668
13600.000000 -19.088 -136.6134
13800.000000 -18.343 -143.9139
14000.000000 -18.112 -152.1181
14300.000000 -18.636 -161.7165
14500.000000 -19.298 -165.2538
14750.000000 -20.181 -166.8633
15000.000000 -20.995 -165.6004
15250.000000 -21.689 -161.4518
15500.000000 -22.189 -155.6546
15750.000000 -22.410 -149.2980
16000.000000 -22.307 -142.5634
16250.000000 -21.902 -135.9188
16500.000000 -21.335 -131.7926
16750.000000 -20.944 -131.9181
17000.000000 -21.138 -135.1189
17250.000000 -22.088 -137.7195
17500.000000 -23.559 -136.6465
17750.000000 -25.086 -131.7776
18000.000000 -26.240 -125.6242
18250.000000 -26.737 -121.3877
18500.000000 -26.483 -121.3896
18750.000000 -25.822 -129.0753
19000.000000 -25.640 -147.5107
19250.000000 -26.786 -172.1021
19500.000000 -29.408 168.1005
19750.000000 -32.947 157.8333
20000.000000 -36.563 154.4872
