* REW测量的测量数据V5.20.13
* 来源: 麦克风 (Realtek High Definition Audio, MICROPHONE (主音), L, volume: no control
* 格式: 512k 对数扫频正弦, 1 扫频 at 0.0 dBFS 没有时间参考
* 日期: 2024-10-9 19:47:10
* REW 设置:
* C计权补偿: 关
*  目标电平: 75.0 dB
* 注释: ; 
* 测量: NICEHCK YD520 White Tips R
* 平滑: 1/24 倍频程
* 频率步进: 1/48 倍频程
* 起始频率: 20.300 Hz
*
* 频率(Hz) SPL(dB) 相位(角度)
20.299999 -14.141 -149.5797
20.600000 -14.117 -149.8193
20.900000 -14.070 -150.2475
21.200001 -14.031 -150.6529
21.400000 -14.011 -150.9035
21.799999 -13.981 -151.3680
22.000000 -13.970 -151.5842
22.400000 -13.952 -151.9823
22.700001 -13.941 -152.2595
23.000000 -13.929 -152.5341
23.299999 -13.916 -152.8256
23.600000 -13.903 -153.1509
24.000000 -13.887 -153.6486
24.299999 -13.880 -154.0576
24.700001 -13.878 -154.6161
25.000000 -13.880 -155.0205
25.400000 -13.883 -155.5184
25.799999 -13.880 -155.9628
26.200001 -13.870 -156.3720
26.500000 -13.857 -156.6763
26.900000 -13.837 -157.0979
27.200001 -13.823 -157.4268
27.600000 -13.810 -157.8657
28.000000 -13.803 -158.2782
28.500000 -13.796 -158.7473
29.000000 -13.785 -159.2164
29.500000 -13.771 -159.7411
30.000000 -13.764 -160.3053
30.400000 -13.763 -160.7328
30.700001 -13.765 -161.0166
31.100000 -13.764 -161.3417
31.500000 -13.758 -161.6241
32.000000 -13.745 -161.9573
32.500000 -13.731 -162.2922
33.000000 -13.722 -162.6279
33.500000 -13.715 -162.9696
34.000000 -13.710 -163.3400
34.500000 -13.709 -163.7484
35.000000 -13.713 -164.1732
35.500000 -13.721 -164.5788
36.000000 -13.727 -164.9481
36.500000 -13.729 -165.2849
37.000000 -13.726 -165.5995
37.500000 -13.719 -165.9010
38.200001 -13.706 -166.3285
38.700001 -13.698 -166.6554
39.500000 -13.696 -167.1861
40.000000 -13.701 -167.4850
40.599998 -13.704 -167.8071
41.200001 -13.701 -168.1282
41.799999 -13.696 -168.4720
42.500000 -13.694 -168.8770
43.099998 -13.697 -169.1889
43.700001 -13.702 -169.4531
44.400002 -13.708 -169.7224
45.000000 -13.710 -169.9565
45.500000 -13.713 -170.1682
46.200001 -13.715 -170.4873
46.799999 -13.717 -170.7831
47.500000 -13.723 -171.1438
48.200001 -13.741 -171.4317
48.700001 -13.751 -171.5508
49.400002 -13.750 -171.6805
50.000000 -13.739 -171.8934
50.799999 -13.742 -172.3184
51.500000 -13.762 -172.6440
52.200001 -13.777 -172.8957
53.000000 -13.786 -173.2027
53.799999 -13.801 -173.5061
54.500000 -13.812 -173.7333
55.200001 -13.815 -173.9882
56.000000 -13.819 -174.3475
57.000000 -13.833 -174.7923
58.000000 -13.847 -175.1763
59.000000 -13.864 -175.5187
60.000000 -13.886 -175.7838
60.799999 -13.901 -175.9672
61.500000 -13.912 -176.1427
62.200001 -13.923 -176.3234
63.000000 -13.934 -176.5257
64.000000 -13.945 -176.7977
65.000000 -13.961 -177.0673
66.000000 -13.977 -177.3181
67.000000 -13.991 -177.5882
68.000000 -14.005 -177.8547
69.000000 -14.017 -178.0970
70.000000 -14.029 -178.3302
71.000000 -14.042 -178.5605
72.000000 -14.057 -178.7935
73.000000 -14.078 -179.0071
74.000000 -14.102 -179.1678
75.000000 -14.118 -179.3266
76.199997 -14.134 -179.5760
77.500000 -14.152 -179.8343
78.800003 -14.169 179.9314
80.000000 -14.185 179.7289
81.199997 -14.200 179.5595
82.500000 -14.217 179.3883
83.800003 -14.235 179.1847
85.000000 -14.252 178.9602
86.199997 -14.269 178.7403
87.500000 -14.289 178.5473
88.500000 -14.307 178.4077
90.000000 -14.336 178.1767
91.199997 -14.353 177.9874
92.500000 -14.366 177.7962
93.800003 -14.384 177.6196
95.000000 -14.404 177.4985
96.199997 -14.420 177.3839
97.500000 -14.437 177.2244
98.800003 -14.457 177.0468
100.000000 -14.476 176.8748
101.500000 -14.497 176.6906
103.000000 -14.516 176.5609
104.400002 -14.536 176.4522
106.000000 -14.564 176.2867
107.500000 -14.591 176.1215
109.000000 -14.611 175.9976
110.599998 -14.634 175.9233
112.000000 -14.661 175.8368
113.800003 -14.696 175.6368
115.000000 -14.712 175.5210
117.199997 -14.735 175.4345
118.000000 -14.751 175.4347
120.599998 -14.808 175.3798
122.000000 -14.818 175.2059
124.099998 -14.839 174.9989
125.000000 -14.851 174.9637
126.500000 -14.873 174.9154
128.000000 -14.894 174.8557
131.500000 -14.940 174.6776
132.000000 -14.947 174.6451
134.000000 -14.976 174.5259
136.000000 -15.000 174.4441
138.000000 -15.024 174.3988
140.000000 -15.047 174.3749
143.000000 -15.096 174.2985
145.000000 -15.127 174.2155
147.500000 -15.154 174.1156
150.000000 -15.177 173.9746
152.500000 -15.206 173.9885
155.000000 -15.242 174.0356
157.500000 -15.272 174.0478
160.000000 -15.291 174.0224
162.500000 -15.309 174.0170
165.000000 -15.334 174.0125
167.500000 -15.357 173.9730
170.000000 -15.379 173.9245
172.500000 -15.408 173.9212
175.000000 -15.433 173.9156
177.500000 -15.456 173.8503
180.000000 -15.480 173.7914
182.500000 -15.499 173.7982
185.000000 -15.518 173.7989
187.500000 -15.539 173.7708
190.000000 -15.559 173.7749
192.500000 -15.577 173.7773
195.000000 -15.596 173.7682
197.500000 -15.614 173.7571
200.000000 -15.629 173.7490
203.000000 -15.653 173.7216
206.000000 -15.681 173.7238
209.000000 -15.705 173.7391
212.000000 -15.723 173.7143
214.000000 -15.736 173.6924
218.000000 -15.767 173.6621
220.000000 -15.782 173.6659
224.000000 -15.815 173.6899
227.000000 -15.839 173.6838
230.000000 -15.860 173.6754
233.000000 -15.881 173.6601
236.000000 -15.898 173.6671
240.000000 -15.920 173.7439
243.000000 -15.936 173.7907
247.000000 -15.961 173.7462
250.000000 -15.984 173.6963
254.000000 -16.018 173.7487
258.000000 -16.054 173.7991
262.000000 -16.085 173.8010
265.000000 -16.104 173.8167
269.000000 -16.129 173.8571
272.000000 -16.147 173.9000
276.000000 -16.167 173.9592
280.000000 -16.187 173.9974
285.000000 -16.219 174.0309
290.000000 -16.253 174.0825
295.000000 -16.284 174.0981
300.000000 -16.320 174.1240
304.000000 -16.346 174.1985
307.000000 -16.363 174.2600
311.000000 -16.387 174.3461
315.000000 -16.412 174.4398
320.000000 -16.444 174.5359
325.000000 -16.477 174.6150
330.000000 -16.506 174.7071
335.000000 -16.538 174.8212
340.000000 -16.569 174.8990
345.000000 -16.594 174.9457
350.000000 -16.623 175.0120
355.000000 -16.649 175.0801
360.000000 -16.674 175.1532
365.000000 -16.704 175.2537
370.000000 -16.735 175.3670
375.000000 -16.768 175.4822
382.000000 -16.810 175.6130
387.000000 -16.842 175.7094
395.000000 -16.897 175.9130
400.000000 -16.930 176.0520
406.000000 -16.970 176.2039
412.000000 -17.012 176.3358
418.000000 -17.052 176.4625
425.000000 -17.099 176.6153
431.000000 -17.139 176.8009
437.000000 -17.187 177.0410
444.000000 -17.251 177.3188
450.000000 -17.309 177.5719
455.000000 -17.352 177.8429
462.000000 -17.401 178.2931
468.000000 -17.437 178.7795
475.000000 -17.466 179.4020
482.000000 -17.473 179.9435
487.000000 -17.468 -179.7238
494.000000 -17.459 -179.3528
500.000000 -17.457 -179.1332
508.000000 -17.462 -178.9285
515.000000 -17.471 -178.7284
522.000000 -17.490 -178.4698
530.000000 -17.526 -178.1873
538.000000 -17.565 -177.8911
545.000000 -17.591 -177.5408
552.000000 -17.607 -177.1105
560.000000 -17.616 -176.5711
570.000000 -17.611 -175.9400
580.000000 -17.589 -175.4818
590.000000 -17.565 -175.1616
600.000000 -17.558 -174.9447
608.000000 -17.566 -174.7986
615.000000 -17.580 -174.6589
622.000000 -17.598 -174.4958
630.000000 -17.618 -174.2710
640.000000 -17.643 -173.9368
650.000000 -17.674 -173.5554
660.000000 -17.704 -173.1840
670.000000 -17.732 -172.8148
680.000000 -17.764 -172.4287
690.000000 -17.797 -172.0182
700.000000 -17.833 -171.5868
710.000000 -17.869 -171.1256
720.000000 -17.905 -170.6263
730.000000 -17.940 -170.0747
740.000000 -17.970 -169.4727
750.000000 -17.996 -168.8334
762.000000 -18.019 -168.0156
775.000000 -18.031 -167.0921
788.000000 -18.030 -166.1695
800.000000 -18.025 -165.3323
812.000000 -18.007 -164.5432
825.000000 -17.983 -163.6897
838.000000 -17.960 -162.8520
850.000000 -17.934 -162.1233
862.000000 -17.901 -161.4072
875.000000 -17.860 -160.6412
885.000000 -17.826 -160.0521
900.000000 -17.776 -159.2248
912.000000 -17.734 -158.5819
925.000000 -17.686 -157.8789
938.000000 -17.636 -157.2086
950.000000 -17.589 -156.6089
962.000000 -17.536 -156.0247
975.000000 -17.477 -155.4094
988.000000 -17.418 -154.8241
1000.000000 -17.361 -154.3037
1015.000000 -17.290 -153.6596
1030.000000 -17.217 -153.0411
1044.000000 -17.149 -152.4739
1060.000000 -17.067 -151.8556
1075.000000 -16.986 -151.3204
1090.000000 -16.907 -150.8001
1106.000000 -16.822 -150.2492
1120.000000 -16.747 -149.7779
1138.000000 -16.652 -149.1876
1150.000000 -16.589 -148.8121
1172.000000 -16.472 -148.1780
1180.000000 -16.429 -147.9494
1206.000000 -16.290 -147.2081
1220.000000 -16.215 -146.8334
1241.000000 -16.104 -146.2809
1250.000000 -16.056 -146.0368
1265.000000 -15.978 -145.6276
1280.000000 -15.900 -145.2317
1315.000000 -15.722 -144.3107
1320.000000 -15.696 -144.1841
1340.000000 -15.594 -143.6875
1360.000000 -15.491 -143.1922
1380.000000 -15.389 -142.6927
1400.000000 -15.291 -142.1858
1430.000000 -15.149 -141.3880
1450.000000 -15.050 -140.8553
1475.000000 -14.925 -140.1681
1500.000000 -14.801 -139.4761
1525.000000 -14.680 -138.7740
1550.000000 -14.561 -138.0521
1575.000000 -14.437 -137.3004
1600.000000 -14.312 -136.5387
1625.000000 -14.184 -135.7596
1650.000000 -14.050 -134.9635
1675.000000 -13.910 -134.1469
1700.000000 -13.761 -133.3018
1725.000000 -13.604 -132.4492
1750.000000 -13.438 -131.5961
1775.000000 -13.260 -130.7457
1800.000000 -13.069 -129.9007
1825.000000 -12.861 -129.0471
1850.000000 -12.633 -128.2208
1875.000000 -12.391 -127.4476
1900.000000 -12.131 -126.7289
1925.000000 -11.853 -126.0878
1950.000000 -11.556 -125.5476
1975.000000 -11.242 -125.1341
2000.000000 -10.919 -124.8688
2030.000000 -10.526 -124.7550
2060.000000 -10.130 -124.8743
2090.000000 -9.737 -125.2069
2120.000000 -9.351 -125.7231
2140.000000 -9.098 -126.1606
2180.000000 -8.612 -127.2459
2200.000000 -8.378 -127.8708
2240.000000 -7.927 -129.2483
2270.000000 -7.601 -130.3913
2300.000000 -7.286 -131.6266
2330.000000 -6.983 -132.9547
2360.000000 -6.691 -134.3786
2400.000000 -6.318 -136.4211
2430.000000 -6.052 -138.0692
2470.000000 -5.717 -140.4266
2500.000000 -5.483 -142.3144
2540.000000 -5.199 -144.9930
2580.000000 -4.953 -147.8389
2620.000000 -4.750 -150.8121
2650.000000 -4.627 -153.1071
2690.000000 -4.502 -156.2273
2720.000000 -4.441 -158.5774
2760.000000 -4.403 -161.6837
2800.000000 -4.412 -164.7171
2850.000000 -4.484 -168.3280
2900.000000 -4.613 -171.6662
2950.000000 -4.787 -174.6721
3000.000000 -4.994 -177.3411
3040.000000 -5.178 -179.2308
3070.000000 -5.323 179.4926
3110.000000 -5.520 177.9803
3150.000000 -5.717 176.6809
3200.000000 -5.962 175.3219
3250.000000 -6.198 174.2155
3300.000000 -6.420 173.3424
3350.000000 -6.626 172.6868
3400.000000 -6.816 172.2178
3450.000000 -6.985 171.9069
3500.000000 -7.132 171.7308
3550.000000 -7.254 171.6661
3600.000000 -7.355 171.6967
3650.000000 -7.431 171.7977
3700.000000 -7.482 171.9496
3750.000000 -7.508 172.1418
3820.000000 -7.500 172.4462
3870.000000 -7.459 172.6504
3950.000000 -7.328 172.8427
4000.000000 -7.212 172.8350
4060.000000 -7.041 172.6577
4120.000000 -6.839 172.2496
4180.000000 -6.608 171.5793
4250.000000 -6.301 170.4288
4310.000000 -6.012 169.0599
4370.000000 -5.704 167.2511
4440.000000 -5.336 164.4461
4500.000000 -5.033 161.3645
4550.000000 -4.807 158.2889
4620.000000 -4.563 153.1869
4680.000000 -4.452 148.1089
4750.000000 -4.484 141.5736
4820.000000 -4.721 134.7964
4870.000000 -5.018 130.0666
4940.000000 -5.598 123.9316
5000.000000 -6.221 119.3575
5080.000000 -7.171 114.4166
5150.000000 -8.067 111.1631
5220.000000 -8.985 108.8302
5300.000000 -10.026 107.1519
5380.000000 -11.034 106.3353
5450.000000 -11.878 106.1870
5520.000000 -12.681 106.4601
5600.000000 -13.554 107.1934
5700.000000 -14.575 108.6458
5800.000000 -15.523 110.5492
5900.000000 -16.401 112.7927
6000.000000 -17.210 115.3403
6080.000000 -17.814 117.5617
6150.000000 -18.317 119.6172
6220.000000 -18.795 121.7752
6300.000000 -19.309 124.3669
6400.000000 -19.903 127.7537
6500.000000 -20.451 131.2585
6600.000000 -20.953 134.8706
6700.000000 -21.410 138.5766
6800.000000 -21.826 142.4132
6900.000000 -22.203 146.3707
7000.000000 -22.540 150.4163
7100.000000 -22.830 154.5424
7200.000000 -23.069 158.7332
7300.000000 -23.265 162.9787
7400.000000 -23.424 167.2588
7500.000000 -23.534 171.5726
7620.000000 -23.596 176.7877
7750.000000 -23.577 -177.6049
7880.000000 -23.476 -172.1430
8000.000000 -23.318 -167.3219
8120.000000 -23.100 -162.6777
8250.000000 -22.804 -157.8271
8380.000000 -22.445 -153.1750
8500.000000 -22.049 -149.0627
8620.000000 -21.584 -145.1488
8750.000000 -20.995 -141.1353
8850.000000 -20.471 -138.2139
9000.000000 -19.548 -134.2526
9120.000000 -18.668 -131.6128
9250.000000 -17.549 -129.5070
9380.000000 -16.235 -128.5705
9500.000000 -14.842 -129.3011
9620.000000 -13.333 -132.4021
9750.000000 -11.753 -139.6371
9880.000000 -10.567 -151.7036
10000.000000 -10.127 -166.1338
10150.000000 -10.630 175.8590
10300.000000 -12.053 162.7572
10440.000000 -13.746 156.0039
10600.000000 -15.649 153.0481
10750.000000 -17.203 153.0672
10900.000000 -18.503 154.6415
11060.000000 -19.643 157.3085
11200.000000 -20.465 160.0945
11380.000000 -21.328 163.9499
11500.000000 -21.815 166.5845
11720.000000 -22.604 171.7239
11800.000000 -22.856 173.9193
12060.000000 -23.277 -178.4245
12200.000000 -23.336 -175.0997
12410.000000 -23.408 -170.3835
12500.000000 -23.408 -168.2400
12650.000000 -23.321 -164.5211
12800.000000 -23.101 -160.7570
13150.000000 -21.979 -152.8230
13200.000000 -21.739 -151.9025
13400.000000 -20.561 -149.2323
13600.000000 -19.048 -149.1805
13800.000000 -17.387 -153.6249
14000.000000 -16.057 -164.2647
14300.000000 -15.869 171.8344
14500.000000 -17.128 158.5835
14750.000000 -19.549 150.9885
15000.000000 -22.007 151.9023
15250.000000 -24.057 158.4254
15500.000000 -25.629 167.5945
15750.000000 -26.746 177.7665
16000.000000 -27.457 -171.0620
16250.000000 -27.801 -158.6736
16500.000000 -27.760 -146.6848
16750.000000 -27.344 -137.0597
17000.000000 -26.720 -131.5161
17250.000000 -26.298 -131.5033
17500.000000 -26.575 -136.1666
17750.000000 -27.819 -141.2321
18000.000000 -29.870 -143.1088
18250.000000 -32.288 -141.6048
18500.000000 -34.645 -137.2853
18750.000000 -36.687 -131.1070
19000.000000 -38.327 -124.7574
19250.000000 -39.536 -119.4185
19500.000000 -40.275 -114.9205
19750.000000 -40.451 -111.0467
20000.000000 -39.962 -108.1755
