* REW测量的测量数据V5.20.13
* 来源: 频率响应平均数据
* 格式: Averaged data produced from the rms magnitudes of One L, One L
* 日期: 2024-10-25 20:50:28
* REW 设置:
* C计权补偿: 关
*  目标电平: 75.0 dB
* 注释: Averaged data produced from the rms magnitudes of One L, One L
* 测量: 均方根平均值1
* 平滑: 1/24 倍频程
* 频率步进: 1/48 倍频程
* 起始频率: 20.300 Hz
*
* 频率(Hz) SPL(dB)
20.299999 0.932
20.600000 0.963
20.900000 1.028
21.200001 1.096
21.400000 1.142
21.799999 1.228
22.000000 1.264
22.400000 1.316
22.700001 1.338
23.000000 1.357
23.299999 1.382
23.600000 1.421
24.000000 1.497
24.299999 1.559
24.700001 1.628
25.000000 1.657
25.400000 1.661
25.799999 1.638
26.200001 1.617
26.500000 1.616
26.900000 1.636
27.200001 1.661
27.600000 1.693
28.000000 1.716
28.500000 1.741
29.000000 1.781
29.500000 1.832
30.000000 1.870
30.400000 1.881
30.700001 1.880
31.100000 1.879
31.500000 1.887
32.000000 1.915
32.500000 1.949
33.000000 1.974
33.500000 1.989
34.000000 2.006
34.500000 2.029
35.000000 2.047
35.500000 2.043
36.000000 2.012
36.500000 1.970
37.000000 1.941
37.500000 1.934
38.200001 1.935
38.700001 1.920
39.500000 1.883
40.000000 1.878
40.599998 1.893
41.200001 1.912
41.799999 1.921
42.500000 1.915
43.099998 1.889
43.700001 1.850
44.400002 1.821
45.000000 1.824
45.500000 1.834
46.200001 1.839
46.799999 1.833
47.500000 1.822
48.200001 1.815
48.700001 1.813
49.400002 1.813
50.000000 1.803
50.799999 1.773
51.500000 1.760
52.200001 1.780
53.000000 1.815
53.799999 1.827
54.500000 1.821
55.200001 1.807
56.000000 1.774
57.000000 1.738
58.000000 1.725
59.000000 1.659
60.000000 1.570
60.799999 1.539
61.500000 1.528
62.200001 1.514
63.000000 1.492
64.000000 1.454
65.000000 1.415
66.000000 1.382
67.000000 1.348
68.000000 1.313
69.000000 1.260
70.000000 1.203
71.000000 1.184
72.000000 1.177
73.000000 1.169
74.000000 1.172
75.000000 1.154
76.199997 1.108
77.500000 1.072
78.800003 1.015
80.000000 0.970
81.199997 0.944
82.500000 0.922
83.800003 0.891
85.000000 0.849
86.199997 0.806
87.500000 0.771
88.500000 0.748
90.000000 0.720
91.199997 0.687
92.500000 0.646
93.800003 0.624
95.000000 0.601
96.199997 0.563
97.500000 0.514
98.800003 0.463
100.000000 0.421
101.500000 0.385
103.000000 0.322
104.400002 0.265
106.000000 0.228
107.500000 0.170
109.000000 0.116
110.599998 0.080
112.000000 0.046
113.800003 0.001
115.000000 -0.039
117.199997 -0.128
118.000000 -0.158
120.599998 -0.210
122.000000 -0.229
124.099998 -0.285
125.000000 -0.312
126.500000 -0.365
128.000000 -0.434
131.500000 -0.557
132.000000 -0.569
134.000000 -0.609
136.000000 -0.652
138.000000 -0.699
140.000000 -0.778
143.000000 -0.927
145.000000 -1.021
147.500000 -1.155
150.000000 -1.249
152.500000 -1.306
155.000000 -1.381
157.500000 -1.491
160.000000 -1.616
162.500000 -1.729
165.000000 -1.796
167.500000 -1.833
170.000000 -1.862
172.500000 -1.893
175.000000 -1.945
177.500000 -2.026
180.000000 -2.092
182.500000 -2.154
185.000000 -2.226
187.500000 -2.292
190.000000 -2.349
192.500000 -2.380
195.000000 -2.397
197.500000 -2.435
200.000000 -2.498
203.000000 -2.568
206.000000 -2.614
209.000000 -2.654
212.000000 -2.699
214.000000 -2.736
218.000000 -2.797
220.000000 -2.821
224.000000 -2.899
227.000000 -2.990
230.000000 -3.070
233.000000 -3.126
236.000000 -3.192
240.000000 -3.280
243.000000 -3.326
247.000000 -3.408
250.000000 -3.496
254.000000 -3.598
258.000000 -3.655
262.000000 -3.712
265.000000 -3.767
269.000000 -3.843
272.000000 -3.880
276.000000 -3.899
280.000000 -3.922
285.000000 -3.970
290.000000 -4.066
295.000000 -4.155
300.000000 -4.240
304.000000 -4.317
307.000000 -4.379
311.000000 -4.458
315.000000 -4.523
320.000000 -4.613
325.000000 -4.702
330.000000 -4.755
335.000000 -4.842
340.000000 -4.962
345.000000 -5.075
350.000000 -5.194
355.000000 -5.298
360.000000 -5.367
365.000000 -5.417
370.000000 -5.452
375.000000 -5.422
382.000000 -5.300
387.000000 -5.208
395.000000 -5.151
400.000000 -5.157
406.000000 -5.160
412.000000 -5.185
418.000000 -5.232
425.000000 -5.283
431.000000 -5.325
437.000000 -5.380
444.000000 -5.453
450.000000 -5.519
455.000000 -5.574
462.000000 -5.635
468.000000 -5.674
475.000000 -5.748
482.000000 -5.847
487.000000 -5.896
494.000000 -5.927
500.000000 -5.970
508.000000 -6.049
515.000000 -6.087
522.000000 -6.114
530.000000 -6.132
538.000000 -6.144
545.000000 -6.199
552.000000 -6.269
560.000000 -6.305
570.000000 -6.333
580.000000 -6.390
590.000000 -6.445
600.000000 -6.469
608.000000 -6.513
615.000000 -6.573
622.000000 -6.628
630.000000 -6.681
640.000000 -6.701
650.000000 -6.690
660.000000 -6.711
670.000000 -6.735
680.000000 -6.746
690.000000 -6.760
700.000000 -6.767
710.000000 -6.748
720.000000 -6.717
730.000000 -6.698
740.000000 -6.698
750.000000 -6.693
762.000000 -6.684
775.000000 -6.668
788.000000 -6.655
800.000000 -6.627
812.000000 -6.589
825.000000 -6.560
838.000000 -6.516
850.000000 -6.443
862.000000 -6.365
875.000000 -6.303
885.000000 -6.245
900.000000 -6.140
912.000000 -6.087
925.000000 -6.032
938.000000 -5.991
950.000000 -5.962
962.000000 -5.920
975.000000 -5.867
988.000000 -5.833
1000.000000 -5.808
1015.000000 -5.747
1030.000000 -5.676
1044.000000 -5.600
1060.000000 -5.447
1075.000000 -5.294
1090.000000 -5.203
1106.000000 -5.135
1120.000000 -5.094
1138.000000 -5.072
1150.000000 -5.041
1172.000000 -4.926
1180.000000 -4.897
1206.000000 -4.778
1220.000000 -4.662
1241.000000 -4.473
1250.000000 -4.387
1265.000000 -4.240
1280.000000 -4.129
1315.000000 -3.935
1320.000000 -3.900
1340.000000 -3.764
1360.000000 -3.638
1380.000000 -3.514
1400.000000 -3.390
1430.000000 -3.209
1450.000000 -3.110
1475.000000 -3.004
1500.000000 -2.925
1525.000000 -2.828
1550.000000 -2.701
1575.000000 -2.567
1600.000000 -2.437
1625.000000 -2.374
1650.000000 -2.352
1675.000000 -2.310
1700.000000 -2.234
1725.000000 -2.146
1750.000000 -2.074
1775.000000 -1.997
1800.000000 -1.890
1825.000000 -1.771
1850.000000 -1.667
1875.000000 -1.571
1900.000000 -1.472
1925.000000 -1.361
1950.000000 -1.233
1975.000000 -1.107
2000.000000 -0.980
2030.000000 -0.814
2060.000000 -0.645
2090.000000 -0.480
2120.000000 -0.347
2140.000000 -0.262
2180.000000 -0.075
2200.000000 0.028
2240.000000 0.253
2270.000000 0.409
2300.000000 0.528
2330.000000 0.647
2360.000000 0.788
2400.000000 1.003
2430.000000 1.137
2470.000000 1.276
2500.000000 1.399
2540.000000 1.568
2580.000000 1.702
2620.000000 1.817
2650.000000 1.916
2690.000000 2.066
2720.000000 2.179
2760.000000 2.325
2800.000000 2.455
2850.000000 2.579
2900.000000 2.653
2950.000000 2.671
3000.000000 2.698
3040.000000 2.745
3070.000000 2.775
3110.000000 2.786
3150.000000 2.785
3200.000000 2.792
3250.000000 2.767
3300.000000 2.687
3350.000000 2.602
3400.000000 2.533
3450.000000 2.450
3500.000000 2.399
3550.000000 2.411
3600.000000 2.405
3650.000000 2.328
3700.000000 2.225
3750.000000 2.125
3820.000000 1.959
3870.000000 1.848
3950.000000 1.719
4000.000000 1.649
4060.000000 1.550
4120.000000 1.426
4180.000000 1.356
4250.000000 1.348
4310.000000 1.330
4370.000000 1.296
4440.000000 1.253
4500.000000 1.227
4550.000000 1.212
4620.000000 1.213
4680.000000 1.256
4750.000000 1.326
4820.000000 1.368
4870.000000 1.372
4940.000000 1.359
5000.000000 1.367
5080.000000 1.416
5150.000000 1.453
5220.000000 1.487
5300.000000 1.537
5380.000000 1.646
5450.000000 1.783
5520.000000 1.889
5600.000000 1.938
5700.000000 1.954
5800.000000 1.952
5900.000000 1.876
6000.000000 1.757
6080.000000 1.637
6150.000000 1.491
6220.000000 1.329
6300.000000 1.154
6400.000000 0.923
6500.000000 0.653
6600.000000 0.358
6700.000000 0.061
6800.000000 -0.204
6900.000000 -0.440
7000.000000 -0.659
7100.000000 -0.896
7200.000000 -1.115
7300.000000 -1.276
7400.000000 -1.401
7500.000000 -1.485
7620.000000 -1.528
7750.000000 -1.508
7880.000000 -1.445
8000.000000 -1.365
8120.000000 -1.249
8250.000000 -1.106
8380.000000 -0.983
8500.000000 -0.942
8620.000000 -1.050
8750.000000 -1.446
8850.000000 -2.000
9000.000000 -3.222
9120.000000 -4.311
9250.000000 -5.269
9380.000000 -5.835
9500.000000 -5.984
9620.000000 -5.804
9750.000000 -5.316
9880.000000 -4.706
10000.000000 -4.180
10150.000000 -3.633
10300.000000 -3.324
10440.000000 -3.341
10600.000000 -3.730
10750.000000 -4.385
10900.000000 -5.211
11060.000000 -6.173
11200.000000 -6.963
11380.000000 -7.833
11500.000000 -8.318
11720.000000 -9.013
11800.000000 -9.222
12060.000000 -9.782
12200.000000 -10.132
12410.000000 -10.698
12500.000000 -10.902
12650.000000 -11.162
12800.000000 -11.357
13150.000000 -11.683
13200.000000 -11.714
13400.000000 -11.784
13600.000000 -11.744
13800.000000 -11.590
14000.000000 -11.317
14300.000000 -10.718
14500.000000 -10.091
14750.000000 -9.010
15000.000000 -7.566
15250.000000 -5.651
15500.000000 -3.382
15750.000000 -1.336
16000.000000 -0.497
16250.000000 -1.476
16500.000000 -3.838
16750.000000 -6.601
17000.000000 -9.117
17250.000000 -11.232
17500.000000 -13.012
17750.000000 -14.485
18000.000000 -15.663
18250.000000 -16.649
18500.000000 -17.488
18750.000000 -18.179
19000.000000 -18.741
19250.000000 -19.165
19500.000000 -19.481
19750.000000 -19.789
20000.000000 -20.146
20300.000000 -20.562
