* REW测量的测量数据V5.20.13
* 来源: 麦克风 (Realtek High Definition Audio, MICROPHONE (主音), L, volume: no control
* 格式: 512k 对数扫频正弦, 1 扫频 at 0.0 dBFS 没有时间参考
* 日期: 2024-10-7 12:37:55
* REW 设置:
* C计权补偿: 关
*  目标电平: 75.0 dB
* 注释: ; 
* 测量: Truthear ZeroRed CP145 L
* 平滑: 1/24 倍频程
* 频率步进: 1/48 倍频程
* 起始频率: 20.300 Hz
*
* 频率(Hz) SPL(dB) 相位(角度)
20.299999 4.405 -158.9142
20.600000 4.418 -159.2536
20.900000 4.441 -159.8494
21.200001 4.456 -160.3840
21.400000 4.462 -160.6998
21.799999 4.470 -161.2727
22.000000 4.474 -161.5479
22.400000 4.483 -162.1010
22.700001 4.488 -162.5372
23.000000 4.490 -163.0005
23.299999 4.489 -163.4855
23.600000 4.483 -163.9856
24.000000 4.471 -164.6615
24.299999 4.459 -165.1642
24.700001 4.441 -165.8226
25.000000 4.428 -166.3088
25.400000 4.410 -166.9451
25.799999 4.393 -167.5539
26.200001 4.379 -168.1271
26.500000 4.372 -168.5443
26.900000 4.369 -169.1088
27.200001 4.368 -169.5526
27.600000 4.364 -170.1702
28.000000 4.354 -170.7867
28.500000 4.336 -171.5043
29.000000 4.321 -172.1635
29.500000 4.313 -172.8180
30.000000 4.303 -173.4919
30.400000 4.289 -174.0145
30.700001 4.276 -174.3760
31.100000 4.259 -174.8116
31.500000 4.246 -175.2170
32.000000 4.234 -175.7373
32.500000 4.217 -176.2993
33.000000 4.190 -176.8631
33.500000 4.157 -177.3814
34.000000 4.128 -177.8632
34.500000 4.106 -178.3633
35.000000 4.088 -178.9126
35.500000 4.066 -179.4897
36.000000 4.042 179.9514
36.500000 4.017 179.4349
37.000000 3.995 178.9569
37.500000 3.974 178.5034
38.200001 3.946 177.8885
38.700001 3.925 177.4520
39.500000 3.886 176.7544
40.000000 3.859 176.3345
40.599998 3.828 175.8597
41.200001 3.799 175.4068
41.799999 3.771 174.9584
42.500000 3.735 174.4290
43.099998 3.701 173.9676
43.700001 3.664 173.5043
44.400002 3.620 172.9781
45.000000 3.585 172.5451
45.500000 3.557 172.1914
46.200001 3.515 171.7076
46.799999 3.475 171.3167
47.500000 3.425 170.8899
48.200001 3.378 170.4655
48.700001 3.349 170.1506
49.400002 3.311 169.6987
50.000000 3.280 169.3204
50.799999 3.237 168.8628
51.500000 3.196 168.5096
52.200001 3.152 168.1651
53.000000 3.095 167.7479
53.799999 3.036 167.3214
54.500000 2.987 166.9517
55.200001 2.942 166.5740
56.000000 2.888 166.1343
57.000000 2.817 165.6082
58.000000 2.751 165.1185
59.000000 2.690 164.6658
60.000000 2.625 164.2915
60.799999 2.570 164.0262
61.500000 2.519 163.7542
62.200001 2.464 163.4255
63.000000 2.399 163.0377
64.000000 2.327 162.6304
65.000000 2.272 162.3089
66.000000 2.217 162.0066
67.000000 2.150 161.6646
68.000000 2.073 161.3149
69.000000 2.002 161.0009
70.000000 1.940 160.7087
71.000000 1.876 160.4277
72.000000 1.804 160.1315
73.000000 1.723 159.8300
74.000000 1.642 159.5902
75.000000 1.576 159.3702
76.199997 1.502 159.0267
77.500000 1.411 158.6920
78.800003 1.324 158.4390
80.000000 1.245 158.1938
81.199997 1.166 157.9839
82.500000 1.083 157.8191
83.800003 0.995 157.6737
85.000000 0.914 157.4548
86.199997 0.829 157.1863
87.500000 0.737 156.9908
88.500000 0.668 156.9031
90.000000 0.567 156.7336
91.199997 0.484 156.5670
92.500000 0.398 156.4078
93.800003 0.315 156.3090
95.000000 0.242 156.2789
96.199997 0.165 156.2555
97.500000 0.069 156.2034
98.800003 -0.026 156.1077
100.000000 -0.107 156.0162
101.500000 -0.203 155.9865
103.000000 -0.297 155.9971
104.400002 -0.388 155.9675
106.000000 -0.498 155.9576
107.500000 -0.590 155.9680
109.000000 -0.675 155.9851
110.599998 -0.777 156.1072
112.000000 -0.872 156.2321
113.800003 -0.988 156.3414
115.000000 -1.056 156.4443
117.199997 -1.165 156.7697
118.000000 -1.198 156.9767
120.599998 -1.323 157.4922
122.000000 -1.434 157.4945
124.099998 -1.578 157.6343
125.000000 -1.631 157.7475
126.500000 -1.718 157.9649
128.000000 -1.794 158.2017
131.500000 -1.962 158.7013
132.000000 -1.987 158.7872
134.000000 -2.086 159.2393
136.000000 -2.187 159.7239
138.000000 -2.280 160.1597
140.000000 -2.367 160.6510
143.000000 -2.496 161.3731
145.000000 -2.584 161.8271
147.500000 -2.678 162.5225
150.000000 -2.747 163.2341
152.500000 -2.817 163.8676
155.000000 -2.898 164.5107
157.500000 -2.965 165.2016
160.000000 -3.037 165.9711
162.500000 -3.109 166.6621
165.000000 -3.171 167.1494
167.500000 -3.205 167.7108
170.000000 -3.224 168.4629
172.500000 -3.260 169.2422
175.000000 -3.295 169.9928
177.500000 -3.322 170.6930
180.000000 -3.339 171.3890
182.500000 -3.345 172.0533
185.000000 -3.353 172.6323
187.500000 -3.357 173.2383
190.000000 -3.361 173.9406
192.500000 -3.379 174.5943
195.000000 -3.388 175.2183
197.500000 -3.384 175.8477
200.000000 -3.371 176.4415
203.000000 -3.348 177.0738
206.000000 -3.330 177.6562
209.000000 -3.311 178.2767
212.000000 -3.282 178.9339
214.000000 -3.265 179.3171
218.000000 -3.236 179.9934
220.000000 -3.210 -179.6690
224.000000 -3.147 -179.0396
227.000000 -3.112 -178.6333
230.000000 -3.085 -178.2150
233.000000 -3.055 -177.7577
236.000000 -3.018 -177.2830
240.000000 -2.968 -176.7283
243.000000 -2.928 -176.3667
247.000000 -2.872 -175.8973
250.000000 -2.837 -175.5907
254.000000 -2.785 -175.2326
258.000000 -2.728 -174.9085
262.000000 -2.675 -174.5857
265.000000 -2.638 -174.3458
269.000000 -2.589 -174.0636
272.000000 -2.555 -173.8463
276.000000 -2.506 -173.5642
280.000000 -2.454 -173.3062
285.000000 -2.399 -173.0193
290.000000 -2.346 -172.8011
295.000000 -2.290 -172.5664
300.000000 -2.228 -172.3710
304.000000 -2.186 -172.2326
307.000000 -2.156 -172.1317
311.000000 -2.112 -172.0170
315.000000 -2.073 -171.9027
320.000000 -2.032 -171.7526
325.000000 -1.991 -171.6140
330.000000 -1.943 -171.5316
335.000000 -1.895 -171.5012
340.000000 -1.850 -171.3692
345.000000 -1.817 -171.2268
350.000000 -1.790 -171.1533
355.000000 -1.758 -171.1135
360.000000 -1.722 -171.0597
365.000000 -1.687 -170.9797
370.000000 -1.656 -170.9169
375.000000 -1.628 -170.8630
382.000000 -1.592 -170.8019
387.000000 -1.570 -170.7660
395.000000 -1.540 -170.6938
400.000000 -1.516 -170.6540
406.000000 -1.487 -170.6012
412.000000 -1.466 -170.5797
418.000000 -1.447 -170.5743
425.000000 -1.420 -170.5499
431.000000 -1.395 -170.5166
437.000000 -1.376 -170.4608
444.000000 -1.362 -170.3857
450.000000 -1.351 -170.3406
455.000000 -1.340 -170.3015
462.000000 -1.318 -170.2400
468.000000 -1.300 -170.1777
475.000000 -1.290 -170.1017
482.000000 -1.284 -170.0278
487.000000 -1.276 -169.9688
494.000000 -1.261 -169.8765
500.000000 -1.250 -169.7810
508.000000 -1.239 -169.6647
515.000000 -1.232 -169.6001
522.000000 -1.225 -169.5526
530.000000 -1.215 -169.4611
538.000000 -1.203 -169.3075
545.000000 -1.193 -169.1837
552.000000 -1.185 -169.0899
560.000000 -1.175 -168.9610
570.000000 -1.165 -168.8109
580.000000 -1.152 -168.6501
590.000000 -1.144 -168.4832
600.000000 -1.137 -168.3151
608.000000 -1.128 -168.1735
615.000000 -1.120 -168.0373
622.000000 -1.114 -167.8931
630.000000 -1.107 -167.7083
640.000000 -1.101 -167.4660
650.000000 -1.099 -167.2391
660.000000 -1.091 -167.0013
670.000000 -1.081 -166.7529
680.000000 -1.071 -166.5041
690.000000 -1.063 -166.2335
700.000000 -1.053 -165.9301
710.000000 -1.039 -165.6060
720.000000 -1.021 -165.2725
730.000000 -1.002 -164.9359
740.000000 -0.978 -164.5755
750.000000 -0.946 -164.2396
762.000000 -0.899 -163.9315
775.000000 -0.851 -163.6549
788.000000 -0.812 -163.3719
800.000000 -0.783 -163.0890
812.000000 -0.757 -162.8170
825.000000 -0.727 -162.5246
838.000000 -0.696 -162.2005
850.000000 -0.669 -161.8785
862.000000 -0.638 -161.5406
875.000000 -0.598 -161.1617
885.000000 -0.566 -160.8780
900.000000 -0.515 -160.4946
912.000000 -0.471 -160.2098
925.000000 -0.423 -159.8886
938.000000 -0.376 -159.5536
950.000000 -0.330 -159.2630
962.000000 -0.280 -158.9997
975.000000 -0.225 -158.7299
988.000000 -0.166 -158.4636
1000.000000 -0.110 -158.2227
1015.000000 -0.044 -157.9373
1030.000000 0.025 -157.6673
1044.000000 0.091 -157.4306
1060.000000 0.167 -157.1978
1075.000000 0.239 -157.0192
1090.000000 0.313 -156.8405
1106.000000 0.389 -156.6535
1120.000000 0.453 -156.4988
1138.000000 0.538 -156.3237
1150.000000 0.595 -156.2310
1172.000000 0.700 -156.0928
1180.000000 0.737 -156.0476
1206.000000 0.858 -155.8794
1220.000000 0.923 -155.7872
1241.000000 1.018 -155.6593
1250.000000 1.057 -155.6054
1265.000000 1.120 -155.5171
1280.000000 1.184 -155.4206
1315.000000 1.335 -155.1622
1320.000000 1.356 -155.1225
1340.000000 1.439 -154.9521
1360.000000 1.524 -154.7757
1380.000000 1.615 -154.6099
1400.000000 1.709 -154.4446
1430.000000 1.852 -154.1815
1450.000000 1.952 -154.0100
1475.000000 2.082 -153.8495
1500.000000 2.211 -153.7599
1525.000000 2.339 -153.7316
1550.000000 2.462 -153.7467
1575.000000 2.581 -153.8152
1600.000000 2.690 -153.9220
1625.000000 2.793 -154.0464
1650.000000 2.890 -154.1925
1675.000000 2.983 -154.3257
1700.000000 3.071 -154.4467
1725.000000 3.156 -154.5731
1750.000000 3.239 -154.6983
1775.000000 3.324 -154.8282
1800.000000 3.408 -154.9653
1825.000000 3.491 -155.0878
1850.000000 3.575 -155.2047
1875.000000 3.661 -155.3367
1900.000000 3.751 -155.4673
1925.000000 3.844 -155.5938
1950.000000 3.938 -155.7318
1975.000000 4.034 -155.8709
2000.000000 4.133 -156.0226
2030.000000 4.250 -156.2435
2060.000000 4.370 -156.4826
2090.000000 4.493 -156.7349
2120.000000 4.619 -157.0092
2140.000000 4.704 -157.2096
2180.000000 4.871 -157.6599
2200.000000 4.952 -157.8972
2240.000000 5.118 -158.4073
2270.000000 5.244 -158.8310
2300.000000 5.368 -159.2915
2330.000000 5.489 -159.7884
2360.000000 5.607 -160.3219
2400.000000 5.760 -161.0897
2430.000000 5.871 -161.7086
2470.000000 6.013 -162.5819
2500.000000 6.114 -163.2614
2540.000000 6.240 -164.1951
2580.000000 6.358 -165.1459
2620.000000 6.474 -166.1224
2650.000000 6.557 -166.8849
2690.000000 6.665 -167.9514
2720.000000 6.743 -168.7832
2760.000000 6.840 -169.9357
2800.000000 6.926 -171.1426
2850.000000 7.019 -172.7271
2900.000000 7.097 -174.3557
2950.000000 7.157 -175.9996
3000.000000 7.199 -177.6658
3040.000000 7.218 -178.9996
3070.000000 7.227 -179.9896
3110.000000 7.232 178.7056
3150.000000 7.230 177.4064
3200.000000 7.215 175.7810
3250.000000 7.186 174.1743
3300.000000 7.143 172.6108
3350.000000 7.087 171.1021
3400.000000 7.018 169.6475
3450.000000 6.940 168.2626
3500.000000 6.856 166.9381
3550.000000 6.768 165.6633
3600.000000 6.675 164.4510
3650.000000 6.575 163.2968
3700.000000 6.470 162.1917
3750.000000 6.361 161.1392
3820.000000 6.199 159.7437
3870.000000 6.081 158.8012
3950.000000 5.887 157.3924
4000.000000 5.761 156.5741
4060.000000 5.606 155.6469
4120.000000 5.448 154.7638
4180.000000 5.287 153.9252
4250.000000 5.097 153.0147
4310.000000 4.930 152.2916
4370.000000 4.759 151.6173
4440.000000 4.558 150.8837
4500.000000 4.383 150.3069
4550.000000 4.235 149.8659
4620.000000 4.024 149.3022
4680.000000 3.842 148.8599
4750.000000 3.626 148.3917
4820.000000 3.408 147.9985
4870.000000 3.251 147.7621
4940.000000 3.028 147.4837
5000.000000 2.835 147.2964
5080.000000 2.579 147.1288
5150.000000 2.354 147.0503
5220.000000 2.128 147.0414
5300.000000 1.871 147.1110
5380.000000 1.615 147.2614
5450.000000 1.392 147.4692
5520.000000 1.170 147.7418
5600.000000 0.918 148.1274
5700.000000 0.604 148.7383
5800.000000 0.299 149.4811
5900.000000 0.004 150.3499
6000.000000 -0.276 151.3656
6080.000000 -0.492 152.2819
6150.000000 -0.675 153.1482
6220.000000 -0.849 154.0613
6300.000000 -1.038 155.1750
6400.000000 -1.255 156.6987
6500.000000 -1.454 158.3214
6600.000000 -1.630 160.0034
6700.000000 -1.779 161.7727
6800.000000 -1.901 163.6599
6900.000000 -1.997 165.6180
7000.000000 -2.065 167.6104
7100.000000 -2.098 169.6505
7200.000000 -2.092 171.7421
7300.000000 -2.056 173.8541
7400.000000 -1.989 175.9496
7500.000000 -1.884 178.0180
7620.000000 -1.697 -179.5025
7750.000000 -1.416 -176.8861
7880.000000 -1.051 -174.4971
8000.000000 -0.635 -172.6121
8120.000000 -0.141 -171.0852
8250.000000 0.483 -169.9390
8380.000000 1.199 -169.4837
8500.000000 1.946 -169.8961
8620.000000 2.767 -171.3824
8750.000000 3.708 -174.5697
8850.000000 4.420 -178.4133
9000.000000 5.335 173.1345
9120.000000 5.789 164.0908
9250.000000 5.856 152.8315
9380.000000 5.425 141.5385
9500.000000 4.629 132.3905
9620.000000 3.553 125.1932
9750.000000 2.211 119.7758
9880.000000 0.810 116.5909
10000.000000 -0.460 115.2765
10150.000000 -1.954 115.3342
10300.000000 -3.308 116.7962
10440.000000 -4.431 119.0562
10600.000000 -5.549 122.3607
10750.000000 -6.444 125.8705
10900.000000 -7.212 129.5374
11060.000000 -7.915 133.4768
11200.000000 -8.454 136.8906
11380.000000 -9.064 141.1723
11500.000000 -9.435 143.9673
11720.000000 -10.072 149.0848
11800.000000 -10.292 150.9800
12060.000000 -10.961 157.5853
12200.000000 -11.279 161.5479
12410.000000 -11.650 168.0522
12500.000000 -11.759 170.9779
12650.000000 -11.862 175.9040
12800.000000 -11.871 -179.1793
13150.000000 -11.575 -167.9516
13200.000000 -11.498 -166.3888
13400.000000 -11.102 -160.2643
13600.000000 -10.546 -154.4085
13800.000000 -9.814 -149.0259
14000.000000 -8.920 -144.1845
14300.000000 -7.309 -138.3452
14500.000000 -6.055 -136.1625
14750.000000 -4.334 -136.3866
15000.000000 -2.672 -140.8165
15250.000000 -1.566 -149.8132
15500.000000 -1.504 -161.8282
15750.000000 -2.561 -171.5130
16000.000000 -4.318 -174.4113
16250.000000 -6.248 -170.2103
16500.000000 -8.017 -161.6456
16750.000000 -9.501 -150.9866
17000.000000 -10.701 -139.2607
17250.000000 -11.662 -127.0348
17500.000000 -12.395 -114.8217
17750.000000 -12.906 -103.2445
18000.000000 -13.220 -93.6188
18250.000000 -13.386 -87.1428
18500.000000 -13.457 -83.4846
18750.000000 -13.517 -82.4233
19000.000000 -13.693 -84.5213
19250.000000 -14.134 -89.8184
19500.000000 -14.943 -96.5448
19750.000000 -16.122 -102.5891
20000.000000 -17.551 -106.7337
20300.000000 -19.213 -108.9482
