* REW测量的测量数据V5.20.13
* 来源: 麦克风 (Realtek High Definition Audio, MICROPHONE (主音), L, volume: no control
* 格式: 512k 对数扫频正弦, 1 扫频 at 0.0 dBFS 没有时间参考
* 日期: 2024-10-7 12:26:59
* REW 设置:
* C计权补偿: 关
*  目标电平: 75.0 dB
* 注释: ; 
* 测量: Truthear ZeroRed Wide Tips L
* 平滑: 1/24 倍频程
* 频率步进: 1/48 倍频程
* 起始频率: 20.300 Hz
*
* 频率(Hz) SPL(dB) 相位(角度)
20.299999 4.332 -160.2263
20.600000 4.342 -160.5358
20.900000 4.362 -161.0824
21.200001 4.378 -161.5834
21.400000 4.386 -161.8902
21.799999 4.398 -162.4755
22.000000 4.404 -162.7688
22.400000 4.412 -163.3692
22.700001 4.413 -163.8382
23.000000 4.411 -164.3240
23.299999 4.403 -164.8222
23.600000 4.392 -165.3309
24.000000 4.373 -166.0206
24.299999 4.356 -166.5395
24.700001 4.333 -167.2254
25.000000 4.316 -167.7324
25.400000 4.297 -168.3933
25.799999 4.284 -169.0254
26.200001 4.277 -169.6261
26.500000 4.276 -170.0660
26.900000 4.278 -170.6555
27.200001 4.279 -171.1054
27.600000 4.275 -171.7057
28.000000 4.262 -172.2794
28.500000 4.240 -172.9337
29.000000 4.221 -173.5549
29.500000 4.208 -174.2086
30.000000 4.193 -174.9061
30.400000 4.178 -175.4549
30.700001 4.165 -175.8384
31.100000 4.151 -176.3060
31.500000 4.140 -176.7423
32.000000 4.130 -177.2861
32.500000 4.113 -177.8426
33.000000 4.085 -178.3819
33.500000 4.051 -178.8860
34.000000 4.021 -179.3876
34.500000 3.995 -179.9339
35.000000 3.970 179.4730
35.500000 3.941 178.8790
36.000000 3.911 178.3289
36.500000 3.885 177.8301
37.000000 3.863 177.3646
37.500000 3.841 176.9170
38.200001 3.808 176.3077
38.700001 3.783 175.8755
39.500000 3.740 175.1838
40.000000 3.711 174.7695
40.599998 3.678 174.3056
41.200001 3.648 173.8652
41.799999 3.618 173.4238
42.500000 3.581 172.8932
43.099998 3.545 172.4387
43.700001 3.508 172.0082
44.400002 3.471 171.5325
45.000000 3.447 171.1014
45.500000 3.424 170.7046
46.200001 3.378 170.1400
46.799999 3.325 169.7193
47.500000 3.264 169.3079
48.200001 3.214 168.9003
48.700001 3.184 168.5826
49.400002 3.145 168.1146
50.000000 3.115 167.7219
50.799999 3.075 167.2521
51.500000 3.040 166.8854
52.200001 3.003 166.5052
53.000000 2.948 166.0324
53.799999 2.882 165.5711
54.500000 2.825 165.1897
55.200001 2.772 164.8225
56.000000 2.716 164.4309
57.000000 2.652 163.9442
58.000000 2.583 163.4312
59.000000 2.507 162.9531
60.000000 2.437 162.5334
60.799999 2.388 162.2208
61.500000 2.347 161.9243
62.200001 2.298 161.6053
63.000000 2.233 161.2537
64.000000 2.148 160.8526
65.000000 2.070 160.4933
66.000000 2.005 160.1575
67.000000 1.943 159.8002
68.000000 1.875 159.4658
69.000000 1.806 159.1362
70.000000 1.735 158.7752
71.000000 1.661 158.4459
72.000000 1.591 158.1542
73.000000 1.518 157.8771
74.000000 1.445 157.6175
75.000000 1.373 157.3535
76.199997 1.285 157.0527
77.500000 1.194 156.7604
78.800003 1.103 156.4566
80.000000 1.019 156.1855
81.199997 0.937 155.9479
82.500000 0.846 155.7397
83.800003 0.754 155.5826
85.000000 0.673 155.3919
86.199997 0.591 155.1735
87.500000 0.501 154.9542
88.500000 0.426 154.8266
90.000000 0.311 154.6577
91.199997 0.223 154.4829
92.500000 0.129 154.3177
93.800003 0.030 154.1996
95.000000 -0.064 154.1563
96.199997 -0.140 154.1177
97.500000 -0.213 153.9858
98.800003 -0.296 153.8377
100.000000 -0.377 153.7653
101.500000 -0.474 153.7615
103.000000 -0.572 153.7947
104.400002 -0.664 153.7997
106.000000 -0.772 153.7910
107.500000 -0.866 153.8043
109.000000 -0.957 153.8176
110.599998 -1.065 153.8775
112.000000 -1.167 153.9635
113.800003 -1.297 154.0920
115.000000 -1.375 154.1705
117.199997 -1.528 154.5721
118.000000 -1.606 154.8970
120.599998 -1.809 155.7282
122.000000 -1.837 155.3908
124.099998 -1.910 155.2598
125.000000 -1.955 155.3924
126.500000 -2.033 155.5917
128.000000 -2.111 155.7918
131.500000 -2.321 156.4461
132.000000 -2.350 156.5347
134.000000 -2.445 156.8684
136.000000 -2.523 157.1320
138.000000 -2.625 157.3881
140.000000 -2.710 157.8326
143.000000 -2.827 158.6511
145.000000 -2.970 159.1237
147.500000 -3.073 159.8597
150.000000 -3.143 160.5788
152.500000 -3.228 161.2104
155.000000 -3.297 161.9013
157.500000 -3.364 162.5043
160.000000 -3.441 163.0427
162.500000 -3.507 163.7226
165.000000 -3.585 164.4530
167.500000 -3.646 165.2366
170.000000 -3.665 166.0448
172.500000 -3.697 166.6638
175.000000 -3.742 167.3399
177.500000 -3.782 168.0190
180.000000 -3.808 168.6897
182.500000 -3.830 169.3314
185.000000 -3.853 169.9268
187.500000 -3.861 170.5537
190.000000 -3.864 171.2033
192.500000 -3.879 171.8112
195.000000 -3.893 172.4083
197.500000 -3.894 173.0003
200.000000 -3.884 173.5568
203.000000 -3.870 174.1991
206.000000 -3.857 174.8835
209.000000 -3.841 175.5172
212.000000 -3.823 176.0540
214.000000 -3.805 176.3818
218.000000 -3.763 177.1001
220.000000 -3.744 177.4587
224.000000 -3.708 178.0961
227.000000 -3.683 178.6037
230.000000 -3.661 179.1249
233.000000 -3.643 179.5546
236.000000 -3.621 179.9489
240.000000 -3.573 -179.5084
243.000000 -3.534 -179.1513
247.000000 -3.485 -178.7390
250.000000 -3.451 -178.4249
254.000000 -3.408 -178.0063
258.000000 -3.361 -177.7086
262.000000 -3.326 -177.4678
265.000000 -3.299 -177.2189
269.000000 -3.251 -176.7619
272.000000 -3.216 -176.4924
276.000000 -3.171 -176.2063
280.000000 -3.129 -175.9043
285.000000 -3.085 -175.6228
290.000000 -3.038 -175.3742
295.000000 -2.988 -175.0844
300.000000 -2.931 -174.8614
304.000000 -2.891 -174.7266
307.000000 -2.863 -174.5898
311.000000 -2.829 -174.3730
315.000000 -2.802 -174.1889
320.000000 -2.760 -174.0547
325.000000 -2.718 -173.9574
330.000000 -2.684 -173.8564
335.000000 -2.652 -173.7626
340.000000 -2.615 -173.6161
345.000000 -2.576 -173.4704
350.000000 -2.544 -173.3746
355.000000 -2.515 -173.3226
360.000000 -2.488 -173.2664
365.000000 -2.468 -173.1550
370.000000 -2.452 -173.0449
375.000000 -2.435 -172.9666
382.000000 -2.405 -172.8473
387.000000 -2.382 -172.7406
395.000000 -2.355 -172.6350
400.000000 -2.342 -172.5887
406.000000 -2.324 -172.4995
412.000000 -2.305 -172.4381
418.000000 -2.285 -172.3816
425.000000 -2.263 -172.2920
431.000000 -2.245 -172.2115
437.000000 -2.235 -172.1177
444.000000 -2.222 -171.9989
450.000000 -2.207 -171.9044
455.000000 -2.196 -171.8087
462.000000 -2.184 -171.6691
468.000000 -2.172 -171.5789
475.000000 -2.156 -171.4879
482.000000 -2.145 -171.3772
487.000000 -2.140 -171.2795
494.000000 -2.133 -171.1297
500.000000 -2.123 -171.0108
508.000000 -2.112 -170.9011
515.000000 -2.103 -170.8056
522.000000 -2.092 -170.7045
530.000000 -2.084 -170.5800
538.000000 -2.079 -170.4392
545.000000 -2.074 -170.3060
552.000000 -2.068 -170.1570
560.000000 -2.062 -169.9511
570.000000 -2.058 -169.7046
580.000000 -2.053 -169.5206
590.000000 -2.045 -169.3348
600.000000 -2.043 -169.1195
608.000000 -2.043 -168.9390
615.000000 -2.037 -168.7747
622.000000 -2.030 -168.6062
630.000000 -2.023 -168.3950
640.000000 -2.015 -168.1089
650.000000 -2.012 -167.8197
660.000000 -2.007 -167.5170
670.000000 -1.997 -167.2045
680.000000 -1.993 -166.8636
690.000000 -1.987 -166.4971
700.000000 -1.973 -166.1072
710.000000 -1.949 -165.7129
720.000000 -1.922 -165.3138
730.000000 -1.885 -164.9313
740.000000 -1.839 -164.6151
750.000000 -1.796 -164.3649
762.000000 -1.752 -164.1133
775.000000 -1.716 -163.8534
788.000000 -1.691 -163.5571
800.000000 -1.669 -163.2557
812.000000 -1.643 -162.9493
825.000000 -1.611 -162.5917
838.000000 -1.583 -162.1961
850.000000 -1.555 -161.8367
862.000000 -1.520 -161.4902
875.000000 -1.482 -161.1185
885.000000 -1.453 -160.8243
900.000000 -1.401 -160.3931
912.000000 -1.357 -160.0632
925.000000 -1.312 -159.7114
938.000000 -1.265 -159.3605
950.000000 -1.219 -159.0482
962.000000 -1.168 -158.7592
975.000000 -1.109 -158.4678
988.000000 -1.051 -158.1872
1000.000000 -0.997 -157.9324
1015.000000 -0.931 -157.6211
1030.000000 -0.859 -157.3422
1044.000000 -0.795 -157.0836
1060.000000 -0.722 -156.8110
1075.000000 -0.648 -156.6034
1090.000000 -0.573 -156.4102
1106.000000 -0.498 -156.2027
1120.000000 -0.433 -156.0250
1138.000000 -0.350 -155.8229
1150.000000 -0.295 -155.7007
1172.000000 -0.190 -155.5071
1180.000000 -0.152 -155.4419
1206.000000 -0.035 -155.2488
1220.000000 0.029 -155.1508
1241.000000 0.123 -155.0021
1250.000000 0.162 -154.9339
1265.000000 0.227 -154.8141
1280.000000 0.293 -154.6931
1315.000000 0.444 -154.3985
1320.000000 0.465 -154.3558
1340.000000 0.548 -154.1832
1360.000000 0.635 -153.9969
1380.000000 0.725 -153.8085
1400.000000 0.817 -153.6154
1430.000000 0.952 -153.3259
1450.000000 1.049 -153.1667
1475.000000 1.180 -152.9879
1500.000000 1.307 -152.8737
1525.000000 1.426 -152.8166
1550.000000 1.540 -152.7981
1575.000000 1.652 -152.8311
1600.000000 1.755 -152.8927
1625.000000 1.849 -152.9515
1650.000000 1.940 -153.0024
1675.000000 2.026 -153.0510
1700.000000 2.111 -153.1092
1725.000000 2.196 -153.1706
1750.000000 2.278 -153.2211
1775.000000 2.361 -153.2753
1800.000000 2.443 -153.3490
1825.000000 2.525 -153.4069
1850.000000 2.608 -153.4565
1875.000000 2.694 -153.5202
1900.000000 2.781 -153.5674
1925.000000 2.872 -153.6120
1950.000000 2.967 -153.6770
1975.000000 3.064 -153.7582
2000.000000 3.163 -153.8583
2030.000000 3.282 -153.9871
2060.000000 3.405 -154.1149
2090.000000 3.529 -154.2647
2120.000000 3.656 -154.4420
2140.000000 3.742 -154.5748
2180.000000 3.912 -154.8906
2200.000000 3.997 -155.0681
2240.000000 4.170 -155.4605
2270.000000 4.302 -155.7832
2300.000000 4.431 -156.1399
2330.000000 4.560 -156.5345
2360.000000 4.688 -156.9724
2400.000000 4.856 -157.6069
2430.000000 4.980 -158.1132
2470.000000 5.142 -158.8513
2500.000000 5.260 -159.4509
2540.000000 5.411 -160.3040
2580.000000 5.553 -161.2197
2620.000000 5.690 -162.1965
2650.000000 5.789 -162.9697
2690.000000 5.915 -164.0572
2720.000000 6.005 -164.9070
2760.000000 6.115 -166.0814
2800.000000 6.213 -167.3137
2850.000000 6.318 -168.9373
2900.000000 6.407 -170.6143
2950.000000 6.479 -172.3063
3000.000000 6.530 -174.0443
3040.000000 6.555 -175.4535
3070.000000 6.565 -176.5057
3110.000000 6.569 -177.8898
3150.000000 6.562 -179.2439
3200.000000 6.535 179.0941
3250.000000 6.493 177.4705
3300.000000 6.439 175.9060
3350.000000 6.372 174.4056
3400.000000 6.292 172.9701
3450.000000 6.200 171.6068
3500.000000 6.102 170.3121
3550.000000 5.997 169.0907
3600.000000 5.884 167.9525
3650.000000 5.766 166.8925
3700.000000 5.643 165.9099
3750.000000 5.517 164.9967
3820.000000 5.333 163.8371
3870.000000 5.200 163.0894
3950.000000 4.988 162.0161
4000.000000 4.855 161.4213
4060.000000 4.691 160.7905
4120.000000 4.527 160.2375
4180.000000 4.364 159.7498
4250.000000 4.177 159.2554
4310.000000 4.019 158.8961
4370.000000 3.863 158.6028
4440.000000 3.683 158.3297
4500.000000 3.530 158.1497
4550.000000 3.405 158.0404
4620.000000 3.234 157.9329
4680.000000 3.094 157.8727
4750.000000 2.932 157.8521
4820.000000 2.774 157.8955
4870.000000 2.664 157.9634
4940.000000 2.516 158.0819
5000.000000 2.393 158.2007
5080.000000 2.235 158.4190
5150.000000 2.102 158.6555
5220.000000 1.972 158.9096
5300.000000 1.831 159.2371
5380.000000 1.696 159.5949
5450.000000 1.583 159.9321
5520.000000 1.475 160.3000
5600.000000 1.358 160.7546
5700.000000 1.219 161.3560
5800.000000 1.094 161.9918
5900.000000 0.986 162.6492
6000.000000 0.893 163.3456
6080.000000 0.826 163.9433
6150.000000 0.775 164.4742
6220.000000 0.734 165.0081
6300.000000 0.700 165.6406
6400.000000 0.674 166.4750
6500.000000 0.670 167.3106
6600.000000 0.692 168.1154
6700.000000 0.744 168.8998
6800.000000 0.827 169.6855
6900.000000 0.944 170.4142
7000.000000 1.099 171.0035
7100.000000 1.297 171.4142
7200.000000 1.537 171.6036
7300.000000 1.807 171.5039
7400.000000 2.104 171.0501
7500.000000 2.425 170.1871
7620.000000 2.837 168.5461
7750.000000 3.291 165.9017
7880.000000 3.719 162.1518
8000.000000 4.048 157.5556
8120.000000 4.254 151.9082
8250.000000 4.266 144.8928
8380.000000 4.012 137.5254
8500.000000 3.540 130.9910
8620.000000 2.877 125.1660
8750.000000 2.000 119.9977
8850.000000 1.255 116.8896
9000.000000 0.091 113.4902
9120.000000 -0.844 111.6795
9250.000000 -1.840 110.4582
9380.000000 -2.807 109.8339
9500.000000 -3.675 109.6657
9620.000000 -4.525 109.8222
9750.000000 -5.433 110.3474
9880.000000 -6.333 111.2550
10000.000000 -7.158 112.4538
10150.000000 -8.173 114.5222
10300.000000 -9.154 117.2566
10440.000000 -10.024 120.3966
10600.000000 -10.937 124.5516
10750.000000 -11.698 128.8216
10900.000000 -12.365 133.3189
11060.000000 -12.975 138.1932
11200.000000 -13.437 142.3990
11380.000000 -13.955 147.7405
11500.000000 -14.259 151.2759
11720.000000 -14.755 157.7046
11800.000000 -14.915 160.0263
12060.000000 -15.364 167.6544
12200.000000 -15.552 171.8664
12410.000000 -15.754 178.2798
12500.000000 -15.809 -178.9727
12650.000000 -15.863 -174.4201
12800.000000 -15.869 -169.9405
13150.000000 -15.709 -159.6461
13200.000000 -15.670 -158.1653
13400.000000 -15.455 -152.1731
13600.000000 -15.129 -146.1728
13800.000000 -14.690 -140.2768
14000.000000 -14.126 -134.4768
14300.000000 -13.092 -126.1804
14500.000000 -12.291 -121.2549
14750.000000 -11.141 -115.8132
15000.000000 -9.791 -110.7214
15250.000000 -8.179 -105.8134
15500.000000 -6.226 -103.2180
15750.000000 -4.109 -106.0935
16000.000000 -2.492 -116.7680
16250.000000 -2.216 -132.7424
16500.000000 -3.525 -145.9215
16750.000000 -5.861 -150.7950
17000.000000 -8.446 -148.5742
17250.000000 -10.845 -142.3315
17500.000000 -12.958 -134.0901
17750.000000 -14.824 -125.1380
18000.000000 -16.515 -116.9390
18250.000000 -18.113 -110.4430
18500.000000 -19.658 -104.8042
18750.000000 -21.165 -99.3663
19000.000000 -22.641 -94.5567
19250.000000 -24.083 -90.8808
19500.000000 -25.491 -87.7212
19750.000000 -26.844 -84.3718
20000.000000 -28.128 -80.5762
20300.000000 -29.461 -76.2888
